t [s],u [deg],y [deg],i [A]
0.000000,-0.000316,0.003662,0.016174
0.000050,-0.001024,0.011597,0.004272
0.000100,-0.001456,-0.002441,-0.010834
0.000150,-0.001130,0.017700,-0.018158
0.000200,-0.000932,0.004272,-0.016785
0.000250,-0.001408,0.003052,-0.003357
0.000300,-0.001362,-0.006104,-0.007629
0.000350,-0.000584,-0.001831,-0.025940
0.000400,-0.000150,0.009766,-0.012207
0.000450,0.000609,0.000000,0.001984
0.000500,0.001463,0.009155,-0.015259
0.000550,0.001666,-0.001221,-0.004120
0.000600,0.002202,-0.003662,-0.009308
0.000650,0.002929,0.007935,-0.008545
0.000700,0.002464,0.001831,-0.003967
0.000750,0.001219,-0.001831,-0.008545
0.000800,0.000232,0.001831,-0.014801
0.000850,-0.000498,0.000610,-0.018921
0.000900,-0.000374,0.000610,0.007172
0.000950,0.000145,-0.001221,0.002594
0.001000,-0.000195,0.005493,-0.018158
0.001050,-0.000805,0.007324,-0.021515
0.001100,-0.000683,0.002441,-0.001526
0.001150,-0.000261,0.010376,-0.010223
0.001200,0.000181,0.001831,-0.022125
0.001250,0.000729,0.001831,-0.018311
0.001300,0.001289,0.001221,-0.020752
0.001350,0.001317,0.009155,-0.016785
0.001400,0.000707,0.000000,-0.005188
0.001450,0.000682,-0.001831,0.005035
0.001500,0.000661,0.001221,-0.021057
0.001550,-0.000298,0.004883,-0.027466
0.001600,-0.001061,0.013428,-0.002899
0.001650,-0.001019,-0.003662,-0.015106
0.001700,-0.000777,-0.004272,-0.008850
0.001750,-0.000728,0.000000,-0.005341
0.001800,-0.000726,0.012817,-0.010376
0.001850,-0.000573,0.008545,-0.008240
0.001900,-0.000412,0.005493,-0.009766
0.001950,-0.000037,0.009766,0.015564
0.002000,0.000357,0.007935,-0.004120
0.002050,0.000570,0.007324,0.001526
0.002100,0.000578,0.013428,-0.018921
0.002150,-0.000055,-0.002441,-0.003815
0.002200,-0.000673,-0.002441,-0.019226
0.002250,-0.000279,0.005493,-0.011444
0.002300,0.000394,0.003662,-0.025635
0.002350,0.000493,0.006714,-0.027771
0.002400,-0.000049,-0.003662,-0.007172
0.002450,-0.001068,0.012207,-0.002441
0.002500,-0.001420,-0.004272,-0.021210
0.002550,-0.001138,-0.015869,0.004120
0.002600,-0.001127,0.006714,-0.032349
0.002650,-0.000820,-0.003662,-0.003510
0.002700,-0.000095,0.001221,-0.009003
0.002750,0.000840,0.001221,0.001526
0.002800,0.001855,0.010376,0.000610
0.002850,0.001469,0.003662,-0.012207
0.002900,0.000067,0.006714,-0.021210
0.002950,-0.000273,0.005493,-0.009918
0.003000,0.000492,-0.001221,0.002441
0.003050,0.001216,-0.001221,-0.015411
0.003100,0.001547,-0.000610,-0.005951
0.003150,0.001588,0.003052,0.017395
0.003200,0.001802,0.010986,-0.008850
0.003250,0.002435,0.012817,-0.003052
0.003300,0.002608,0.001221,0.002136
0.003350,0.001764,-0.000610,-0.010071
0.003400,0.000471,-0.002441,-0.018768
0.003450,-0.000610,0.004883,-0.022736
0.003500,-0.001393,0.004272,0.019531
0.003550,-0.001101,0.000000,-0.026245
0.003600,0.000258,0.007324,-0.016785
0.003650,0.001194,-0.006714,-0.006104
0.003700,0.001464,0.010986,0.012817
0.003750,0.001548,0.000000,0.018311
0.003800,0.001406,0.003662,-0.019379
0.003850,0.000992,-0.003052,-0.004272
0.003900,0.000653,0.010376,0.001068
0.003950,0.000382,0.003662,-0.007935
0.004000,-0.000054,0.015869,-0.028839
0.004050,-0.000068,0.009766,-0.008698
0.004100,0.000662,-0.001221,-0.002136
0.004150,0.001395,0.000610,-0.027618
0.004200,0.001365,0.004272,-0.027313
0.004250,0.000958,0.014038,-0.023956
0.004300,0.000509,-0.007324,-0.006256
0.004350,-0.000398,0.017700,-0.003510
0.004400,-0.001121,-0.001221,-0.025330
0.004450,-0.000919,0.007324,-0.012512
0.004500,-0.000298,0.007935,-0.007935
0.004550,0.000033,-0.009155,0.036621
0.004600,-0.000228,0.001221,-0.002594
0.004650,-0.000716,-0.012817,0.019989
0.004700,-0.001022,0.009766,-0.056763
0.004750,-0.001399,0.004883,-0.034332
0.004800,-0.001408,-0.001221,-0.003967
0.004850,-0.000706,0.004883,-0.015411
0.004900,0.000173,-0.010986,-0.016327
0.004950,0.000821,-0.008545,-0.013885
0.005000,0.000794,-0.013428,-0.005035
0.005050,0.000291,-0.001831,0.002747
0.005100,0.000075,-0.004883,-0.021210
0.005150,0.000217,0.001221,-0.058289
0.005200,-0.000219,0.003662,-0.030518
0.005250,-0.001350,-0.007324,-0.009613
0.005300,-0.001898,0.011597,-0.006409
0.005350,-0.001396,0.009766,-0.019684
0.005400,-0.000716,-0.004883,-0.020142
0.005450,-0.000372,0.003052,-0.016327
0.005500,0.000130,-0.004272,-0.002747
0.005550,0.000621,-0.003052,0.007935
0.005600,0.001038,-0.004272,0.015411
0.005650,0.001817,0.006104,0.014191
0.005700,0.002220,0.004883,-0.021362
0.005750,0.001616,0.004272,-0.007324
0.005800,0.000933,0.014038,-0.007935
0.005850,0.001516,0.006104,0.008698
0.005900,0.002305,0.017090,-0.015717
0.005950,0.001954,0.018311,-0.013123
0.006000,0.001299,-0.000610,-0.004578
0.006050,0.001265,0.006104,-0.025177
0.006100,0.001706,-0.006104,-0.036163
0.006150,0.001799,0.002441,0.003357
0.006200,0.001304,0.004883,0.012207
0.006250,0.001036,0.007324,-0.009918
0.006300,0.001611,0.018311,-0.041504
0.006350,0.002325,0.004883,-0.018005
0.006400,0.001910,-0.016479,-0.003662
0.006450,0.000098,0.001831,0.007324
0.006500,-0.002260,0.007935,-0.016479
0.006550,-0.005499,0.010986,-0.063324
0.006600,-0.010041,-0.001221,-0.014496
0.006650,-0.012447,-0.001831,0.000916
0.006700,-0.004921,0.000000,-0.027313
0.006750,0.019657,-0.005493,-0.000458
0.006800,0.064595,0.001831,0.045166
0.006850,0.132123,-0.008545,0.128632
0.006900,0.223147,0.012207,0.191956
0.006950,0.327986,0.025024,0.254211
0.007000,0.414650,0.055542,0.301514
0.007050,0.441619,0.100098,0.270386
0.007100,0.390802,0.181274,0.096741
0.007150,0.281911,0.230713,-0.227814
0.007200,0.161361,0.310059,-0.546875
0.007250,0.072374,0.340576,-0.770569
0.007300,0.026647,0.360718,-0.672150
0.007350,0.008835,0.305786,-0.299835
0.007400,0.001700,0.239868,0.021820
0.007450,-0.000619,0.167847,0.267944
0.007500,0.001106,0.099487,0.307617
0.007550,0.003781,0.051880,0.289307
0.007600,0.003680,0.012207,0.208893
0.007650,0.000587,0.005493,0.112457
0.007700,-0.002309,-0.006714,0.068970
0.007750,-0.003048,0.002441,0.012817
0.007800,-0.002951,0.004883,-0.033569
0.007850,-0.003529,0.005493,-0.020599
0.007900,-0.003919,0.005493,-0.021667
0.007950,-0.002678,0.001831,-0.018768
0.008000,-0.000693,0.014648,-0.036621
0.008050,0.000008,0.004272,-0.014496
0.008100,-0.000785,0.004883,-0.007019
0.008150,-0.002059,-0.000610,-0.007019
0.008200,-0.002665,0.018311,-0.017090
0.008250,-0.002474,-0.009766,-0.012970
0.008300,-0.002533,-0.007935,-0.004425
0.008350,-0.002758,0.012817,-0.015259
0.008400,-0.002195,-0.005493,-0.008698
0.008450,-0.001200,0.000610,-0.030518
0.008500,-0.000506,-0.014038,0.013275
0.008550,-0.000092,0.002441,-0.014343
0.008600,-0.000035,0.007935,-0.016174
0.008650,-0.000442,0.006104,-0.005035
0.008700,-0.000541,0.007324,0.000610
0.008750,0.000140,-0.003052,-0.005493
0.008800,0.000371,0.009155,-0.018311
0.008850,-0.000082,-0.003662,-0.012665
0.008900,0.000009,0.002441,0.001526
0.008950,0.000379,-0.007935,-0.000458
0.009000,0.000401,0.010376,-0.014496
0.009050,0.000509,-0.007324,-0.016785
0.009100,-0.000504,0.001831,-0.003510
0.009150,-0.002587,0.002441,-0.019989
0.009200,-0.003002,0.010986,-0.019226
0.009250,-0.002770,-0.006714,-0.023041
0.009300,-0.002771,0.000000,-0.024109
0.009350,-0.001706,0.000610,0.003510
0.009400,-0.000784,0.013428,0.000305
0.009450,-0.000477,0.000000,0.002136
0.009500,-0.000125,-0.004272,-0.007782
0.009550,0.000208,0.000610,-0.020905
0.009600,0.000184,-0.003662,0.004730
0.009650,0.000136,0.009155,-0.004578
0.009700,0.000670,0.009155,-0.004883
0.009750,0.001097,0.003052,0.009308
0.009800,0.000507,-0.008545,0.003967
0.009850,-0.000516,-0.001221,-0.012054
0.009900,-0.000862,0.005493,-0.030518
0.009950,-0.001040,0.009155,-0.036011
0.010000,-0.001413,0.004883,-0.011597
0.010050,-0.001792,0.000000,-0.027313
0.010100,-0.001667,0.003052,0.006561
0.010150,-0.000792,0.005493,-0.013885
0.010200,0.000090,-0.006104,-0.006561
0.010250,0.000830,0.004272,-0.003662
0.010300,0.000612,-0.006714,-0.014954
0.010350,-0.000696,0.000610,-0.019836
0.010400,-0.001566,0.006714,-0.015869
0.010450,-0.001622,0.014038,-0.024109
0.010500,-0.001412,0.006104,-0.005035
0.010550,-0.000657,-0.004272,-0.007782
0.010600,-0.000134,-0.004883,-0.005646
0.010650,-0.000817,0.012207,-0.020752
0.010700,-0.001347,-0.000610,-0.029449
0.010750,-0.001211,-0.007324,-0.016632
0.010800,-0.000841,0.001221,-0.017090
0.010850,-0.000591,-0.003052,-0.008850
0.010900,-0.000572,-0.002441,-0.026703
0.010950,-0.000500,-0.001831,-0.014648
0.011000,-0.000602,0.009155,0.005341
0.011050,-0.000141,-0.008545,0.001221
0.011100,0.000685,-0.004883,-0.021973
0.011150,0.000422,-0.004883,-0.006561
0.011200,0.000335,0.003052,0.000305
0.011250,0.000723,-0.001831,-0.019989
0.011300,0.000214,0.011597,-0.001831
0.011350,-0.000206,0.001831,-0.020752
0.011400,0.000102,0.000610,0.000458
0.011450,0.000551,0.002441,0.002136
0.011500,0.000438,-0.006104,-0.012207
0.011550,-0.000101,0.004272,0.012054
0.011600,-0.000354,0.000610,0.002747
0.011650,-0.000791,0.007324,-0.029755
0.011700,-0.001361,-0.007935,0.005188
0.011750,-0.001137,-0.004272,-0.008850
0.011800,-0.000356,0.004883,-0.021362
0.011850,0.000433,0.012817,-0.028839
0.011900,0.000608,-0.004883,0.008392
0.011950,0.000003,0.000610,-0.018768
0.012000,-0.000548,0.007935,-0.004425
0.012050,-0.000243,0.007935,-0.009918
0.012100,0.000361,-0.001831,0.003357
0.012150,-0.000058,0.001221,-0.000305
0.012200,-0.000439,0.008545,-0.031586
0.012250,0.000084,0.008545,-0.016479
0.012300,0.000378,0.006104,-0.010681
0.012350,0.000380,0.004883,-0.013580
0.012400,0.000402,-0.006104,-0.015869
0.012450,0.000235,-0.000610,-0.033569
0.012500,-0.000117,0.006714,-0.012817
0.012550,-0.000613,0.006104,-0.010376
0.012600,-0.000681,0.003052,-0.013123
0.012650,-0.000425,0.008545,0.006561
0.012700,-0.000601,0.001831,0.018005
0.012750,-0.000991,-0.003662,0.022583
0.012800,-0.000885,0.011597,-0.028839
0.012850,-0.000339,0.005493,-0.010529
0.012900,0.000005,-0.002441,-0.027161
0.012950,0.000024,-0.006714,0.017242
0.013000,-0.000495,0.001221,-0.019989
0.013050,-0.000952,0.000610,0.001373
0.013100,-0.000473,-0.002441,-0.017853
0.013150,0.000093,0.001221,-0.042877
0.013200,0.000514,0.010986,-0.006256
0.013250,0.001319,0.002441,-0.019989
0.013300,0.001779,-0.002441,0.007629
0.013350,0.001496,0.004883,0.012054
0.013400,0.001342,-0.001831,-0.001831
0.013450,0.001128,-0.002441,0.002441
0.013500,0.000587,-0.010376,-0.007935
0.013550,0.000595,0.009155,-0.022583
0.013600,0.000548,0.000000,-0.003204
0.013650,-0.000175,-0.010376,0.003052
0.013700,-0.000207,0.028076,-0.002136
0.013750,0.000530,0.021362,-0.043030
0.013800,0.000545,-0.000610,-0.003662
0.013850,-0.000044,0.000000,-0.018311
0.013900,-0.000633,0.004272,-0.006104
0.013950,-0.000686,0.009766,-0.000916
0.014000,0.000022,0.006104,-0.008698
0.014050,0.000449,-0.006714,-0.002441
0.014100,0.000544,0.007935,0.003357
0.014150,0.001044,-0.010376,0.008087
0.014200,0.001645,0.005493,-0.026550
0.014250,0.002056,-0.009155,0.003357
0.014300,0.002379,0.006714,-0.032654
0.014350,0.002751,0.012817,-0.034027
0.014400,0.003163,-0.003662,-0.020752
0.014450,0.003300,-0.009155,0.007324
0.014500,0.003210,-0.013428,-0.000916
0.014550,0.002774,0.003662,-0.008850
0.014600,0.001636,0.002441,-0.004425
