t [s],u [deg],y [deg],i [A]
0.000000,0.000722,0.011597,-0.015869
0.000050,0.000634,0.004272,-0.001068
0.000100,0.000189,0.001221,-0.002136
0.000150,0.000274,0.004272,0.006561
0.000200,0.000546,-0.003052,-0.021210
0.000250,0.000423,-0.003662,-0.019836
0.000300,0.000143,0.000000,0.000305
0.000350,-0.000025,0.012817,-0.052032
0.000400,-0.000639,-0.003662,0.002899
0.000450,-0.001389,-0.005493,-0.005646
0.000500,-0.001720,-0.004272,-0.025330
0.000550,-0.001875,0.007935,-0.030670
0.000600,-0.001105,-0.009766,0.021057
0.000650,0.000440,0.001831,0.005035
0.000700,0.001087,-0.004272,-0.020294
0.000750,0.000796,0.006714,-0.004272
0.000800,0.000663,0.014648,0.001984
0.000850,0.000620,0.001831,-0.002747
0.000900,0.000190,0.006104,0.002594
0.000950,-0.000084,0.012207,-0.040436
0.001000,0.000337,0.006714,-0.028229
0.001050,0.000796,0.014038,-0.010834
0.001100,0.000967,-0.003662,-0.008850
0.001150,0.000973,0.001831,-0.015717
0.001200,0.000936,0.005493,-0.008698
0.001250,0.000961,0.005493,-0.022278
0.001300,0.000665,0.016479,-0.016937
0.001350,0.000414,0.007935,-0.016174
0.001400,0.000388,0.001831,-0.014496
0.001450,0.000258,0.008545,-0.010681
0.001500,0.000324,0.017700,-0.013123
0.001550,0.000591,0.004272,0.004120
0.001600,0.001029,0.000000,0.001831
0.001650,0.001509,-0.003662,-0.020142
0.001700,0.001255,-0.001831,-0.017548
0.001750,0.000699,-0.001221,0.008698
0.001800,0.000624,0.002441,-0.005035
0.001850,0.000429,0.006714,-0.000305
0.001900,-0.000043,-0.000610,-0.011597
0.001950,-0.000581,0.006714,-0.001221
0.002000,-0.000774,0.010376,-0.009918
0.002050,-0.000488,0.003052,-0.032501
0.002100,-0.000284,-0.002441,0.000153
0.002150,-0.000186,0.009155,-0.006104
0.002200,-0.000348,-0.006104,0.001221
0.002250,-0.000438,-0.001221,-0.010529
0.002300,-0.000375,0.009155,-0.009613
0.002350,-0.000502,-0.000610,0.003052
0.002400,-0.000368,-0.000610,-0.019531
0.002450,-0.000032,-0.004272,-0.015259
0.002500,-0.000032,-0.013428,-0.003052
0.002550,-0.000303,-0.009155,-0.006256
0.002600,-0.000624,0.005493,-0.017548
0.002650,-0.000809,0.007324,-0.005646
0.002700,-0.000222,-0.002441,-0.005035
0.002750,0.000135,0.001221,0.007019
0.002800,-0.000146,0.005493,-0.003357
0.002850,0.000077,0.000000,-0.010223
0.002900,0.000445,0.005493,0.010834
0.002950,0.000761,0.004272,-0.003510
0.003000,0.000851,0.009155,-0.018158
0.003050,0.000448,0.002441,-0.001373
0.003100,0.000135,0.001221,0.000305
0.003150,0.000200,-0.002441,-0.021057
0.003200,0.000055,0.002441,-0.014038
0.003250,-0.000144,-0.001221,-0.004730
0.003300,0.000502,0.003052,-0.012054
0.003350,0.001659,0.006104,-0.006104
0.003400,0.002032,0.001831,-0.003052
0.003450,0.001951,-0.006714,0.005798
0.003500,0.002544,-0.003662,-0.019836
0.003550,0.002787,0.007324,-0.017548
0.003600,0.001968,-0.003662,-0.003510
0.003650,0.001166,0.004883,-0.020905
0.003700,0.000446,0.007935,-0.026550
0.003750,-0.000650,0.001831,-0.022888
0.003800,-0.001100,-0.002441,-0.020905
0.003850,-0.000994,-0.005493,-0.010071
0.003900,-0.001099,0.011597,-0.026398
0.003950,-0.001178,-0.000610,-0.016937
0.004000,-0.000695,-0.005493,-0.009003
0.004050,0.000271,0.005493,0.001678
0.004100,0.000772,0.002441,-0.000458
0.004150,0.000953,-0.001831,-0.007019
0.004200,0.000818,0.000000,0.011139
0.004250,0.000886,0.009766,-0.002289
0.004300,0.001786,-0.001221,-0.004730
0.004350,0.002501,-0.000610,-0.030365
0.004400,0.002509,0.003052,0.008698
0.004450,0.001784,-0.005493,-0.016632
0.004500,0.000628,-0.009766,-0.006866
0.004550,-0.000140,0.015259,-0.004120
0.004600,-0.000101,0.003662,-0.014801
0.004650,0.000175,-0.010986,-0.002289
0.004700,0.000579,0.003052,-0.013123
0.004750,0.001366,-0.004272,-0.000153
0.004800,0.001891,0.001221,-0.006714
0.004850,0.001814,0.014038,0.002747
0.004900,0.001717,0.006104,0.009308
0.004950,0.002080,-0.012207,-0.017090
0.005000,0.002478,-0.006104,-0.011292
0.005050,0.002334,0.009766,-0.026703
0.005100,0.001238,0.014038,-0.024109
0.005150,-0.000139,0.009766,-0.007019
0.005200,-0.000414,0.006714,-0.018463
0.005250,0.000156,0.010986,-0.028839
0.005300,0.000293,0.011597,-0.030823
0.005350,0.000297,0.018921,0.003357
0.005400,0.000873,0.001831,-0.002441
0.005450,0.001150,0.006714,0.006256
0.005500,0.000765,-0.005493,0.008392
0.005550,0.000336,0.009766,-0.008087
0.005600,0.000370,-0.005493,-0.009460
0.005650,0.001051,-0.005493,-0.011139
0.005700,0.001435,0.002441,-0.011444
0.005750,0.000993,0.009155,-0.030212
0.005800,0.000378,0.000610,-0.006714
0.005850,-0.000526,-0.001831,0.000610
0.005900,-0.001051,0.004272,-0.023041
0.005950,-0.000813,-0.006104,-0.012817
0.006000,-0.000495,-0.002441,-0.000916
0.006050,-0.000198,0.001831,-0.020905
0.006100,0.000009,0.006714,0.005035
0.006150,0.000825,-0.009155,0.003204
0.006200,0.001507,0.000000,0.032349
0.006250,0.001430,0.007935,-0.010681
0.006300,0.001453,0.009155,-0.025940
0.006350,0.001279,-0.011597,0.001526
0.006400,0.000469,-0.011597,-0.026398
0.006450,-0.001501,0.010376,-0.002594
0.006500,-0.003709,0.004883,-0.014496
0.006550,-0.005284,-0.007935,-0.014496
0.006600,-0.007738,-0.000610,-0.002747
0.006650,-0.009821,-0.001221,-0.019836
0.006700,-0.005243,0.000610,-0.001221
0.006750,0.013111,-0.020752,0.006561
0.006800,0.047100,-0.014038,0.042725
0.006850,0.094889,0.012207,0.074158
0.006900,0.157169,-0.001221,0.141449
0.006950,0.226448,0.018921,0.183258
0.007000,0.276733,0.037842,0.221405
0.007050,0.284839,0.062866,0.174408
0.007100,0.252573,0.100708,0.002747
0.007150,0.204981,0.172729,-0.169525
0.007200,0.173939,0.211182,-0.372162
0.007250,0.169247,0.249634,-0.389252
0.007300,0.169247,0.231323,-0.211945
0.007350,0.145961,0.230713,-0.024261
0.007400,0.095009,0.212402,0.075989
0.007450,0.039606,0.181274,-0.015869
0.007500,0.003537,0.150757,-0.143127
0.007550,-0.010100,0.150757,-0.130310
0.007600,-0.011239,0.115967,-0.063782
0.007650,-0.007553,0.086670,0.091553
0.007700,-0.002395,0.040894,0.141144
0.007750,0.000863,0.012207,0.144653
0.007800,0.000854,0.010376,0.111237
0.007850,-0.000421,-0.009766,0.024414
0.007900,-0.001286,-0.026855,0.040436
0.007950,-0.001384,-0.006104,-0.006866
0.008000,-0.001372,0.001221,-0.025024
0.008050,-0.001255,-0.009155,-0.002899
0.008100,-0.000465,-0.007324,-0.018616
0.008150,-0.000084,0.013428,-0.018005
0.008200,-0.000183,0.014648,-0.017548
0.008250,0.000174,0.009766,-0.036316
0.008300,0.000894,0.016479,-0.021515
0.008350,0.001167,0.012207,0.007477
0.008400,0.000210,0.001221,0.009918
0.008450,-0.000753,0.001221,-0.017548
0.008500,-0.000604,-0.011597,-0.010529
0.008550,-0.000131,-0.001831,-0.037231
0.008600,0.000221,-0.004272,-0.023651
0.008650,0.000834,0.011597,-0.033875
0.008700,0.001299,-0.004883,0.023193
0.008750,0.000878,-0.002441,0.012360
0.008800,0.000237,-0.010986,-0.031281
0.008850,-0.000191,-0.005493,-0.028534
0.008900,-0.000485,0.010986,-0.007019
0.008950,-0.000161,0.002441,-0.015869
0.009000,0.000593,0.009766,-0.032806
0.009050,0.001148,0.015869,-0.016937
0.009100,0.001503,0.006104,-0.016479
0.009150,0.001782,0.008545,-0.019684
0.009200,0.001608,0.006104,-0.016785
0.009250,0.000998,0.006714,-0.001831
0.009300,0.000783,0.000610,0.000458
0.009350,0.001180,-0.001831,-0.029907
0.009400,0.001305,0.001831,0.009766
0.009450,0.000402,0.004883,0.007629
0.009500,-0.000304,0.010376,-0.008240
0.009550,0.000431,0.006714,-0.003204
0.009600,0.001477,0.007324,-0.007935
0.009650,0.001557,-0.001221,0.002441
0.009700,0.000977,0.015259,-0.023956
0.009750,0.000381,0.002441,-0.006409
0.009800,-0.000285,0.004883,-0.025177
0.009850,-0.001019,-0.007324,-0.010376
0.009900,-0.001411,0.012207,-0.021820
0.009950,-0.001427,-0.003662,-0.008850
0.010000,-0.001601,-0.005493,-0.009155
0.010050,-0.001932,0.000610,-0.009918
0.010100,-0.002316,0.003662,0.000153
0.010150,-0.001838,0.001831,-0.018005
0.010200,-0.000728,0.005493,-0.022888
0.010250,-0.000711,0.004272,-0.010223
0.010300,-0.001389,-0.017090,0.000916
0.010350,-0.001072,0.000000,-0.016632
0.010400,0.000513,-0.001221,-0.033569
0.010450,0.001182,-0.005493,-0.008087
0.010500,0.000255,-0.010376,-0.012970
0.010550,-0.000508,-0.000610,-0.003967
0.010600,-0.000902,-0.013428,-0.019073
0.010650,-0.001107,0.001831,-0.030823
0.010700,-0.000448,0.005493,-0.014343
0.010750,0.000306,0.004272,-0.012054
0.010800,0.000294,0.007324,-0.002289
0.010850,0.000044,-0.001831,0.001678
0.010900,0.000277,0.003052,-0.027466
0.010950,0.000383,0.011597,-0.013733
0.011000,-0.000177,0.001831,-0.002289
0.011050,-0.000166,-0.003662,-0.008545
0.011100,0.000068,-0.008545,-0.009918
0.011150,-0.000565,0.002441,-0.015717
0.011200,-0.000925,-0.002441,-0.007782
0.011250,-0.000298,0.005493,-0.010986
0.011300,0.000465,0.004272,-0.000916
0.011350,0.001179,0.015869,-0.020752
0.011400,0.001794,0.002441,-0.001373
0.011450,0.001879,-0.007324,0.009766
0.011500,0.001607,0.003052,0.002136
0.011550,0.001322,0.010986,-0.022736
0.011600,0.001676,0.006104,-0.022583
0.011650,0.002176,-0.000610,-0.010834
0.011700,0.001802,0.015869,-0.007019
0.011750,0.000941,-0.003052,-0.004883
0.011800,0.000045,0.004272,-0.020905
0.011850,-0.000931,-0.003052,-0.021362
0.011900,-0.001495,0.000610,-0.000458
0.011950,-0.001320,-0.001831,-0.034027
0.012000,-0.001246,-0.004272,-0.020142
0.012050,-0.001476,0.001221,-0.013885
0.012100,-0.001627,0.013428,-0.016327
0.012150,-0.001813,0.003662,0.010834
0.012200,-0.001713,-0.002441,-0.019836
0.012250,-0.000901,-0.004272,-0.006866
0.012300,-0.000104,0.002441,-0.018463
0.012350,0.000160,-0.005493,-0.025940
0.012400,0.000548,0.012817,-0.019073
0.012450,0.001080,-0.003662,-0.019836
0.012500,0.000800,0.001831,-0.031128
0.012550,0.000418,0.000000,-0.007172
0.012600,0.000415,0.004272,-0.024261
0.012650,-0.000048,0.003662,-0.030823
0.012700,-0.000395,-0.001221,-0.010223
0.012750,-0.000031,0.010986,-0.012054
0.012800,0.001022,0.007324,-0.012360
0.012850,0.001871,0.015259,-0.018005
0.012900,0.001478,0.005493,-0.008545
0.012950,0.000666,0.003052,-0.020599
0.013000,0.000219,-0.000610,-0.002899
0.013050,-0.000256,0.015259,-0.012054
0.013100,-0.000892,0.006104,-0.000916
0.013150,-0.001388,-0.001831,-0.023193
0.013200,-0.001529,0.012817,-0.019226
0.013250,-0.001092,0.006104,-0.011597
0.013300,-0.000126,-0.004883,-0.021973
0.013350,0.001037,0.004272,-0.006714
0.013400,0.001870,0.010376,-0.015869
0.013450,0.001984,0.009766,-0.004120
0.013500,0.001734,-0.007324,-0.019684
0.013550,0.001152,0.003052,-0.016327
0.013600,0.000640,0.009766,-0.013428
0.013650,0.000451,0.013428,0.004120
0.013700,-0.000453,0.004883,-0.028381
0.013750,-0.002154,-0.002441,-0.010223
0.013800,-0.002742,-0.000610,-0.001526
0.013850,-0.001633,0.001831,-0.033569
0.013900,-0.000672,0.003662,-0.031433
0.013950,-0.000760,-0.006104,-0.014343
0.014000,-0.001878,0.007935,-0.011139
0.014050,-0.002912,0.007324,-0.000763
0.014100,-0.002512,-0.005493,-0.007324
0.014150,-0.002057,-0.006104,-0.020905
0.014200,-0.001820,0.004272,-0.019989
0.014250,-0.000335,0.001831,0.000458
0.014300,0.001243,-0.004883,-0.010681
0.014350,0.001894,-0.007324,-0.020142
0.014400,0.001707,0.000000,-0.005035
0.014450,0.001085,-0.017700,-0.023956
0.014500,0.001468,0.004272,-0.032043
0.014550,0.002263,0.009766,-0.025787
0.014600,0.001720,0.009766,0.009460
