t [s],u [deg],y [deg],i [A]
0.000000,-0.000023,0.006714,0.001068
0.000050,0.000602,0.003662,-0.027618
0.000100,0.000774,-0.006104,0.000000
0.000150,0.000268,0.015259,-0.007782
0.000200,-0.000134,0.008545,-0.008545
0.000250,0.000012,-0.003052,-0.016327
0.000300,0.000301,-0.012817,-0.007172
0.000350,0.000234,0.001221,-0.010834
0.000400,0.000236,0.005493,-0.005646
0.000450,0.000307,-0.000610,0.007935
0.000500,0.000375,0.006104,-0.020905
0.000550,0.000596,-0.009155,-0.003052
0.000600,-0.000111,0.002441,-0.014343
0.000650,-0.001093,0.009766,0.003204
0.000700,-0.000839,-0.006714,-0.025482
0.000750,-0.000249,0.009155,-0.014343
0.000800,-0.000031,0.001831,-0.008240
0.000850,0.000490,-0.003052,-0.025177
0.000900,0.001519,0.003662,-0.001373
0.000950,0.001912,-0.003052,-0.015259
0.001000,0.001497,-0.000610,-0.007172
0.001050,0.000893,0.014648,-0.021667
0.001100,0.000013,0.006714,-0.018005
0.001150,-0.000676,0.007324,-0.028839
0.001200,-0.000864,0.006104,-0.019531
0.001250,-0.000654,0.016479,-0.032043
0.001300,-0.000543,0.001831,-0.017548
0.001350,-0.000725,0.011597,-0.020142
0.001400,-0.000829,-0.009155,-0.016937
0.001450,-0.000514,-0.000610,-0.006561
0.001500,0.000483,-0.004883,-0.000153
0.001550,0.001235,-0.003052,-0.019531
0.001600,0.000720,0.013428,-0.014801
0.001650,-0.000094,0.006714,-0.017395
0.001700,-0.000205,0.009155,-0.018921
0.001750,0.000060,0.014038,-0.012512
0.001800,0.000400,-0.003662,-0.021362
0.001850,0.000257,0.004272,-0.015717
0.001900,-0.000096,0.010986,0.001221
0.001950,-0.000142,0.004272,-0.015259
0.002000,0.000198,0.001221,-0.004425
0.002050,0.001154,0.000000,0.008698
0.002100,0.001748,0.005493,-0.006104
0.002150,0.001593,0.001221,0.000458
0.002200,0.001467,0.004883,0.003204
0.002250,0.001389,0.009155,-0.016022
0.002300,0.000785,-0.000610,-0.027008
0.002350,-0.000120,0.007324,0.001373
0.002400,-0.000452,0.011597,-0.023193
0.002450,-0.000357,-0.009155,-0.004425
0.002500,-0.000609,0.016479,-0.016937
0.002550,-0.001290,-0.006714,0.002136
0.002600,-0.001394,-0.010986,-0.011749
0.002650,-0.000247,-0.005493,-0.001831
0.002700,0.001052,0.000000,-0.013580
0.002750,0.001894,-0.003662,-0.012207
0.002800,0.002012,0.007935,-0.011597
0.002850,0.000877,0.000000,-0.014038
0.002900,0.000120,-0.004883,-0.003357
0.002950,0.000027,0.005493,-0.008545
0.003000,-0.000787,0.008545,-0.006561
0.003050,-0.001428,0.003052,-0.002747
0.003100,-0.000791,0.009766,-0.004425
0.003150,0.000250,0.006104,-0.004425
0.003200,0.000424,0.000610,-0.009918
0.003250,0.000168,-0.001221,-0.016937
0.003300,0.000252,0.009155,-0.016785
0.003350,0.001054,0.005493,0.014191
0.003400,0.002116,-0.001831,-0.003815
0.003450,0.002365,0.003052,-0.009460
0.003500,0.001963,0.007324,-0.017853
0.003550,0.001669,0.000000,-0.000305
0.003600,0.001573,-0.003662,-0.003967
0.003650,0.001292,0.012817,-0.005951
0.003700,0.000680,-0.004272,-0.006714
0.003750,-0.000129,-0.003052,-0.012665
0.003800,-0.000526,0.011597,-0.005798
0.003850,-0.000180,0.001221,-0.005035
0.003900,0.000438,0.009766,-0.007019
0.003950,0.000525,0.002441,0.001221
0.004000,0.000108,0.001831,0.022278
0.004050,-0.000034,0.020752,-0.014801
0.004100,0.000172,0.014038,-0.042725
0.004150,0.000145,0.001221,-0.001221
0.004200,0.000238,0.001831,0.000153
0.004250,0.001120,0.000610,-0.016785
0.004300,0.002062,-0.004883,-0.026245
0.004350,0.002252,-0.010376,0.001373
0.004400,0.001389,0.001221,0.029907
0.004450,0.000227,-0.001221,-0.057068
0.004500,-0.000003,0.007324,-0.025330
0.004550,0.000509,-0.003662,-0.010223
0.004600,0.000814,0.006714,-0.011902
0.004650,0.000648,0.006104,-0.006561
0.004700,0.000492,0.006104,-0.007935
0.004750,0.000424,-0.004272,-0.009918
0.004800,0.000695,-0.006714,-0.031738
0.004850,0.000718,-0.000610,-0.011139
0.004900,0.000033,0.005493,-0.006256
0.004950,-0.000349,0.001221,-0.010834
0.005000,0.000327,0.005493,-0.012512
0.005050,0.001520,0.004272,-0.035400
0.005100,0.001274,0.004272,-0.044556
0.005150,0.000051,0.003052,-0.006714
0.005200,-0.000236,0.015869,-0.008087
0.005250,0.000269,0.002441,-0.001526
0.005300,0.000764,0.000000,0.010376
0.005350,0.001179,0.006714,0.006409
0.005400,0.001792,-0.001831,-0.020905
0.005450,0.001909,0.007935,0.004120
0.005500,0.001110,-0.007324,-0.017700
0.005550,0.000699,0.021973,-0.026398
0.005600,0.001106,0.005493,-0.028381
0.005650,0.001051,-0.003052,-0.010834
0.005700,0.000365,0.012207,-0.035248
0.005750,-0.000064,-0.002441,0.013123
0.005800,0.000270,0.007324,0.002441
0.005850,0.001030,-0.000610,0.010529
0.005900,0.001291,-0.008545,0.025787
0.005950,0.001113,0.009766,-0.016327
0.006000,0.000586,0.001831,-0.028534
0.006050,-0.000167,0.001221,-0.024719
0.006100,-0.000482,-0.003052,-0.024109
0.006150,-0.000433,0.012817,-0.029297
0.006200,-0.000148,0.018311,-0.025024
0.006250,0.000415,-0.007935,0.000458
0.006300,0.001259,0.001221,-0.000153
0.006350,0.001869,0.001221,-0.038605
0.006400,0.001334,0.008545,-0.005646
0.006450,-0.000194,0.000610,-0.017700
0.006500,-0.002292,0.017700,-0.003815
0.006550,-0.005361,-0.010376,-0.014801
0.006600,-0.009582,-0.000610,-0.038300
0.006650,-0.011818,0.007324,-0.045471
0.006700,-0.005218,-0.003052,-0.022736
0.006750,0.017334,-0.000610,-0.007629
0.006800,0.059488,0.015869,0.030518
0.006850,0.121441,0.001831,0.137787
0.006900,0.203481,0.006104,0.207214
0.006950,0.296708,0.031128,0.253448
0.007000,0.371732,0.056152,0.287628
0.007050,0.394095,0.095215,0.243530
0.007100,0.350782,0.156860,0.077667
0.007150,0.259842,0.216064,-0.200195
0.007200,0.162446,0.277710,-0.511322
0.007250,0.095057,0.316772,-0.649414
0.007300,0.063102,0.325928,-0.558014
0.007350,0.047826,0.296631,-0.253448
0.007400,0.033027,0.241089,0.041199
0.007450,0.018649,0.167236,0.210419
0.007500,0.009178,0.112915,0.208130
0.007550,0.003719,0.072021,0.142975
0.007600,-0.000099,0.051880,0.089722
0.007650,-0.002814,0.020142,0.104675
0.007700,-0.003014,0.028687,0.049896
0.007750,-0.001202,0.007935,0.031891
0.007800,-0.000442,0.020142,0.006409
0.007850,-0.001708,-0.007324,0.005341
0.007900,-0.002927,0.003052,0.001221
0.007950,-0.002484,0.004272,-0.020294
0.008000,-0.001603,-0.002441,-0.011139
0.008050,-0.001048,-0.001221,-0.041656
0.008100,-0.000872,-0.011597,0.010834
0.008150,-0.001063,0.010986,-0.005798
0.008200,-0.001012,-0.003052,-0.014038
0.008250,-0.001159,0.020142,-0.012970
0.008300,-0.001187,-0.007935,0.000000
0.008350,-0.000412,0.000000,-0.027008
0.008400,0.000172,0.003662,-0.002899
0.008450,0.000129,0.001221,-0.031891
0.008500,0.000038,0.009155,-0.012512
0.008550,-0.000423,0.005493,-0.003052
0.008600,-0.001220,0.004883,-0.015106
0.008650,-0.001070,-0.007324,-0.006104
0.008700,-0.000473,0.004883,-0.005188
0.008750,-0.000427,-0.001221,0.000610
0.008800,-0.000552,-0.004883,0.004730
0.008850,-0.000674,0.001831,0.001831
0.008900,-0.000252,0.005493,0.010529
0.008950,0.000247,0.007935,-0.015717
0.009000,0.000345,0.004272,-0.006866
0.009050,0.000012,0.010986,-0.008545
0.009100,-0.000717,0.000610,-0.000458
0.009150,-0.001158,-0.006104,-0.015717
0.009200,-0.001097,0.007935,-0.027466
0.009250,-0.000408,0.005493,-0.007629
0.009300,0.000946,-0.000610,-0.000763
0.009350,0.001724,0.002441,-0.016022
0.009400,0.001044,0.002441,0.004883
0.009450,0.000401,-0.001831,-0.016937
0.009500,0.000540,-0.001831,-0.031433
0.009550,0.000397,-0.002441,0.002289
0.009600,-0.000008,0.008545,-0.014038
0.009650,0.000184,0.004272,-0.016785
0.009700,0.000420,0.000000,-0.018616
0.009750,-0.000261,-0.005493,-0.003357
0.009800,-0.001048,0.001831,0.002441
0.009850,-0.001283,0.005493,-0.003204
0.009900,-0.001675,0.006714,-0.015564
0.009950,-0.001948,0.003662,-0.021362
0.010000,-0.001634,0.000000,-0.007629
0.010050,-0.001088,0.017700,-0.011902
0.010100,-0.000253,-0.007935,-0.013428
0.010150,0.000840,0.003052,-0.005798
0.010200,0.001494,0.001221,-0.008850
0.010250,0.001997,0.001221,-0.013733
0.010300,0.002216,-0.001831,-0.018616
0.010350,0.001504,0.009766,-0.028687
0.010400,0.000894,0.012817,-0.005646
0.010450,0.000952,0.001831,-0.016785
0.010500,0.001006,0.004272,-0.028687
0.010550,0.000978,0.006104,-0.032196
0.010600,0.000898,0.004272,-0.003967
0.010650,0.000679,0.003662,-0.012360
0.010700,0.000753,-0.007935,-0.016022
0.010750,0.000900,-0.006104,-0.017853
0.010800,0.000822,-0.010376,0.001068
0.010850,0.000593,0.007324,-0.005646
0.010900,0.000302,0.009766,-0.004883
0.010950,0.000166,0.007935,0.008850
0.011000,0.000372,-0.006104,-0.020905
0.011050,0.000221,-0.009155,-0.013580
0.011100,-0.000933,-0.009766,0.011902
0.011150,-0.001994,0.005493,-0.020142
0.011200,-0.001957,0.004883,-0.003662
0.011250,-0.001594,0.000610,-0.026093
0.011300,-0.001766,-0.000610,-0.009003
0.011350,-0.001515,0.005493,-0.021820
0.011400,-0.000476,0.004272,-0.011444
0.011450,-0.000038,0.006714,-0.003052
0.011500,-0.000330,0.000610,-0.013733
0.011550,-0.000207,0.003052,-0.011749
0.011600,0.000180,-0.001221,-0.023804
0.011650,0.000234,0.002441,0.008240
0.011700,0.000189,0.001221,-0.010376
0.011750,0.000503,0.014038,-0.011597
0.011800,0.000892,0.007935,-0.018768
0.011850,0.000503,0.002441,0.005951
0.011900,-0.000038,0.007935,0.005798
0.011950,0.000100,0.010986,-0.022888
0.012000,0.000199,-0.006104,-0.013123
0.012050,-0.000140,0.009155,-0.017395
0.012100,-0.000810,0.012817,-0.003510
0.012150,-0.001466,0.003052,-0.018311
0.012200,-0.001896,-0.000610,-0.020447
0.012250,-0.001740,0.001221,-0.014191
0.012300,-0.000499,0.004272,-0.015869
0.012350,0.000580,0.001221,0.001221
0.012400,0.000630,0.014038,-0.013275
0.012450,0.000135,0.010376,-0.001526
0.012500,-0.000117,-0.004272,-0.003815
0.012550,-0.000527,-0.000610,-0.004730
0.012600,-0.001900,0.007935,0.000000
0.012650,-0.002261,0.005493,-0.012970
0.012700,-0.001203,-0.002441,-0.016632
0.012750,-0.000982,0.000000,0.012817
0.012800,-0.001021,-0.001221,0.025940
0.012850,-0.000159,0.003662,-0.011597
0.012900,0.000557,0.000000,-0.037994
0.012950,-0.000063,-0.007324,0.011139
0.013000,-0.001532,-0.001221,0.008087
0.013050,-0.002321,0.011597,-0.010376
0.013100,-0.001832,-0.001221,-0.005798
0.013150,-0.000639,0.003052,-0.025940
0.013200,0.000076,-0.008545,0.010529
0.013250,0.000192,0.003052,-0.009308
0.013300,0.000311,0.001831,-0.003052
0.013350,0.000393,0.001221,-0.012817
0.013400,0.000136,-0.020142,0.016937
0.013450,0.000285,0.012817,-0.025482
0.013500,0.000964,0.008545,-0.012054
0.013550,0.000679,0.014648,-0.018616
0.013600,-0.000235,-0.003052,-0.027771
0.013650,-0.000156,0.003052,-0.001373
0.013700,0.000677,0.007324,-0.040588
0.013750,0.000535,-0.004883,0.024414
0.013800,-0.000421,0.007935,0.005188
0.013850,-0.001093,-0.002441,-0.024261
0.013900,-0.001203,0.006714,-0.003510
0.013950,-0.000712,0.006714,-0.004730
0.014000,-0.000355,0.014648,-0.028687
0.014050,-0.000645,-0.008545,-0.014954
0.014100,-0.001130,0.004883,-0.009460
0.014150,-0.001066,0.005493,-0.040588
0.014200,0.000072,0.015869,-0.038147
0.014250,0.001518,0.003052,0.000305
0.014300,0.001666,-0.000610,-0.013885
0.014350,0.000960,0.005493,0.005493
0.014400,0.001494,-0.001221,0.021973
0.014450,0.002449,-0.005493,-0.019836
0.014500,0.002049,0.003052,-0.021515
0.014550,0.001335,-0.002441,-0.018768
0.014600,0.000685,0.006714,-0.025024
