t [s],u [deg],y [deg],i [A]
0.000000,-0.000632,-0.006104,-0.013123
0.000050,-0.000558,-0.000610,-0.003357
0.000100,-0.000193,0.002441,-0.035858
0.000150,0.000655,0.006104,-0.018921
0.000200,0.001365,0.005493,-0.027924
0.000250,0.001614,-0.003662,-0.022583
0.000300,0.001887,0.001221,-0.022583
0.000350,0.001551,0.007935,-0.004883
0.000400,0.001216,0.008545,-0.012665
0.000450,0.000891,0.005493,-0.004578
0.000500,0.000108,0.002441,0.001068
0.000550,-0.000294,0.001221,-0.008698
0.000600,-0.000168,0.009766,-0.012665
0.000650,0.000079,0.010376,-0.010071
0.000700,0.000236,0.014038,-0.021362
0.000750,0.000169,-0.005493,0.001526
0.000800,-0.000067,-0.004272,-0.012207
0.000850,-0.000055,-0.010376,-0.011597
0.000900,0.000046,0.010376,-0.004120
0.000950,0.000125,0.004272,-0.007324
0.001000,0.000282,0.014648,-0.037689
0.001050,0.000148,-0.006104,-0.015869
0.001100,-0.000088,-0.007324,-0.015564
0.001150,0.000098,-0.007935,-0.004425
0.001200,0.000368,0.012207,-0.016785
0.001250,0.000200,-0.004883,-0.023956
0.001300,0.000250,-0.001831,-0.012207
0.001350,0.001027,-0.003052,-0.001678
0.001400,0.001589,0.010986,-0.009155
0.001450,0.001249,0.010986,-0.016479
0.001500,0.000699,0.001831,-0.006409
0.001550,0.000541,0.006104,0.002747
0.001600,0.000110,-0.001831,-0.006256
0.001650,-0.000325,0.018921,-0.010834
0.001700,0.000142,-0.008545,-0.021667
0.001750,0.000371,0.001221,-0.005493
0.001800,-0.000012,-0.003662,0.008545
0.001850,-0.000084,0.006714,-0.024109
0.001900,0.000094,0.002441,-0.007782
0.001950,0.000141,0.008545,0.003204
0.002000,-0.000503,0.007324,-0.003662
0.002050,-0.000964,0.010376,-0.014648
0.002100,-0.000778,0.007324,-0.000305
0.002150,-0.000451,0.000610,-0.017548
0.002200,0.000264,0.003052,0.006409
0.002250,0.000574,0.011597,0.002899
0.002300,0.000257,0.009766,-0.001678
0.002350,-0.000300,-0.011597,0.012512
0.002400,-0.001139,0.002441,-0.018768
0.002450,-0.001801,0.000000,-0.003052
0.002500,-0.001977,0.007324,-0.010529
0.002550,-0.002032,0.003662,0.002747
0.002600,-0.001805,0.015869,-0.006104
0.002650,-0.001299,-0.007324,-0.011749
0.002700,-0.000947,-0.001831,0.014648
0.002750,-0.000494,0.005493,-0.018768
0.002800,-0.000361,0.007324,-0.013733
0.002850,-0.000694,0.003662,-0.015564
0.002900,-0.001120,-0.001831,-0.023804
0.002950,-0.001375,0.009155,-0.017548
0.003000,-0.001029,-0.010376,-0.009613
0.003050,-0.000441,-0.003662,-0.012512
0.003100,0.000353,0.003052,-0.019531
0.003150,0.000955,0.000000,0.001678
0.003200,0.001181,-0.006714,-0.004120
0.003250,0.001705,0.010376,0.005798
0.003300,0.002038,0.005493,-0.018158
0.003350,0.001622,-0.003052,-0.009613
0.003400,0.000912,-0.006714,-0.035858
0.003450,0.000339,0.003662,-0.005951
0.003500,-0.000333,-0.007324,-0.020447
0.003550,-0.000413,-0.001221,-0.012207
0.003600,-0.000133,-0.004883,-0.014648
0.003650,-0.000305,0.004883,-0.018616
0.003700,0.000268,-0.007324,-0.006866
0.003750,0.000908,0.000000,-0.025482
0.003800,0.000662,0.005493,0.007935
0.003850,0.000410,0.000000,0.009918
0.003900,0.000367,-0.009766,-0.003510
0.003950,0.000518,-0.001831,-0.032959
0.004000,0.000363,0.003052,-0.014801
0.004050,-0.000052,-0.009766,-0.024872
0.004100,-0.000120,-0.006104,0.009613
0.004150,0.000346,0.001831,0.006409
0.004200,0.000847,-0.001221,-0.007782
0.004250,0.001258,-0.008545,-0.015106
0.004300,0.001869,-0.002441,0.000763
0.004350,0.001332,0.000000,0.012360
0.004400,0.000045,0.005493,0.004120
0.004450,-0.000456,-0.003662,0.003662
0.004500,-0.000565,0.004883,0.000305
0.004550,-0.000393,0.003052,-0.008545
0.004600,-0.000236,-0.001221,0.008240
0.004650,-0.000408,0.007935,-0.022278
0.004700,-0.000609,0.003052,-0.006104
0.004750,-0.001168,0.011597,0.012360
0.004800,-0.001387,0.001221,-0.018158
0.004850,-0.000725,0.007324,-0.042419
0.004900,-0.000208,-0.006714,0.005493
0.004950,-0.000135,-0.005493,0.016174
0.005000,0.000156,-0.004272,-0.019989
0.005050,0.000821,0.009155,-0.016937
0.005100,0.001091,0.001831,0.006409
0.005150,0.000927,-0.009155,-0.003052
0.005200,0.000644,0.001831,-0.011292
0.005250,0.000292,-0.007935,-0.010529
0.005300,0.000081,0.004272,-0.039368
0.005350,-0.000182,0.009155,-0.033417
0.005400,0.000090,0.001831,0.001831
0.005450,0.000912,-0.011597,0.011444
0.005500,0.001147,0.001831,0.007019
0.005550,0.001144,0.000610,-0.000916
0.005600,0.001196,0.004272,-0.030212
0.005650,0.000603,0.012207,-0.015717
0.005700,-0.000290,0.012207,-0.027771
0.005750,-0.000599,0.000000,-0.038452
0.005800,-0.000729,-0.020142,0.018158
0.005850,-0.001031,0.003052,-0.025635
0.005900,-0.000721,0.003052,0.002747
0.005950,-0.000446,-0.004883,-0.005341
0.006000,-0.000706,-0.004272,-0.026855
0.006050,-0.000395,0.002441,-0.021515
0.006100,0.000609,0.010376,-0.009766
0.006150,0.001521,0.001831,-0.014038
0.006200,0.001680,0.003052,0.009003
0.006250,0.001016,0.001221,0.017700
0.006300,0.000955,0.002441,-0.019379
0.006350,0.001894,0.009766,0.001678
0.006400,0.001248,0.004272,-0.007935
0.006450,-0.001343,0.005493,-0.007782
0.006500,-0.003877,-0.001831,-0.014343
0.006550,-0.006877,0.002441,-0.035400
0.006600,-0.011042,0.003052,-0.038910
0.006650,-0.013103,0.017090,-0.017090
0.006700,-0.005533,-0.004883,-0.005798
0.006750,0.019356,0.009155,-0.027924
0.006800,0.064785,-0.014038,0.050507
0.006850,0.132443,-0.015869,0.125885
0.006900,0.224009,0.001221,0.187683
0.006950,0.328465,0.024414,0.234375
0.007000,0.412753,0.039062,0.314941
0.007050,0.438228,0.084229,0.288849
0.007100,0.387137,0.159302,0.117950
0.007150,0.278347,0.244141,-0.261078
0.007200,0.159594,0.309448,-0.569763
0.007250,0.073159,0.351562,-0.777435
0.007300,0.029589,0.354004,-0.651550
0.007350,0.012799,0.312500,-0.289154
0.007400,0.005076,0.256958,0.070801
0.007450,0.001547,0.159302,0.269623
0.007500,0.001670,0.104370,0.288239
0.007550,0.003015,0.042114,0.254059
0.007600,0.002299,0.018311,0.192261
0.007650,-0.000731,0.001221,0.106659
0.007700,-0.002536,-0.004883,0.059814
0.007750,-0.002752,-0.004883,0.002899
0.007800,-0.003226,0.010376,-0.018768
0.007850,-0.004167,0.001221,-0.031281
0.007900,-0.004475,0.002441,-0.028381
0.007950,-0.003151,0.007935,-0.000610
0.008000,-0.001644,0.005493,-0.004578
0.008050,-0.001436,0.014038,-0.005341
0.008100,-0.001563,-0.014038,0.003204
0.008150,-0.001287,0.000000,-0.008392
0.008200,-0.000965,-0.004272,-0.008087
0.008250,-0.000924,0.010986,-0.003510
0.008300,-0.001724,-0.005493,-0.000305
0.008350,-0.002960,0.012207,0.003204
0.008400,-0.003467,-0.004883,-0.001678
0.008450,-0.003074,-0.001221,-0.012512
0.008500,-0.001956,0.012817,-0.039825
0.008550,-0.000854,0.003052,-0.003204
0.008600,-0.000562,0.004272,-0.004730
0.008650,-0.001103,0.003662,-0.024109
0.008700,-0.001869,0.004272,-0.026703
0.008750,-0.001542,-0.013428,-0.018005
0.008800,-0.000374,-0.004272,-0.008087
0.008850,0.000024,0.007324,-0.021667
0.008900,-0.000492,0.000000,-0.007172
0.008950,-0.000829,-0.004272,-0.011139
0.009000,-0.000461,0.004272,0.004272
0.009050,0.000112,0.012207,-0.019989
0.009100,0.000364,-0.004272,-0.014038
0.009150,0.000426,-0.006714,-0.007782
0.009200,0.000454,0.004883,0.005188
0.009250,0.000226,0.000610,-0.006409
0.009300,0.000069,-0.000610,-0.008698
0.009350,-0.000149,-0.003052,-0.019684
0.009400,-0.000648,0.003662,-0.009003
0.009450,-0.000682,-0.005493,-0.019531
0.009500,-0.000917,0.006104,-0.041656
0.009550,-0.001727,0.003052,0.003662
0.009600,-0.002093,-0.003052,0.011292
0.009650,-0.001571,-0.004883,-0.013733
0.009700,-0.000683,0.002441,-0.017853
0.009750,-0.000315,-0.007324,-0.010529
0.009800,-0.000471,-0.007324,-0.017242
0.009850,-0.000852,0.000610,0.004730
0.009900,-0.001140,0.004272,0.006104
0.009950,-0.001177,0.001831,-0.018463
0.010000,-0.001018,-0.005493,-0.025482
0.010050,-0.000742,0.000610,-0.021362
0.010100,-0.000912,-0.004883,0.003662
0.010150,-0.000701,0.000000,-0.001831
0.010200,0.000745,-0.009155,-0.003052
0.010250,0.001587,-0.000610,0.005646
0.010300,0.001211,-0.015259,-0.005341
0.010350,0.000568,-0.003052,-0.001526
0.010400,-0.000469,0.011597,-0.037384
0.010450,-0.001102,0.003662,-0.023041
0.010500,-0.000583,0.012207,-0.019073
0.010550,0.000109,0.000000,-0.012360
0.010600,0.000595,0.004272,-0.015564
0.010650,0.000963,0.000610,-0.020752
0.010700,0.000361,-0.001221,0.002594
0.010750,-0.000500,0.003052,-0.011902
0.010800,-0.000516,0.004272,-0.021210
0.010850,-0.000701,-0.004883,-0.011749
0.010900,-0.000667,0.003052,-0.010376
0.010950,0.000079,0.009155,-0.012817
0.011000,0.000266,-0.003662,-0.009613
0.011050,-0.000265,-0.001831,-0.007172
0.011100,-0.001081,0.007324,-0.014496
0.011150,-0.001542,-0.000610,-0.022736
0.011200,-0.001932,-0.001831,-0.016174
0.011250,-0.002244,0.004883,-0.010071
0.011300,-0.001542,0.004883,-0.013733
0.011350,-0.001072,0.014038,-0.000458
0.011400,-0.001004,0.007324,-0.011292
0.011450,0.000039,0.001221,0.001526
0.011500,0.001118,-0.000610,-0.018463
0.011550,0.000940,-0.013428,-0.023041
0.011600,0.000564,0.007935,-0.020752
0.011650,0.000593,-0.003662,-0.007782
0.011700,0.000244,0.001221,-0.023804
0.011750,0.000326,0.003052,-0.015717
0.011800,0.000935,0.009155,-0.018005
0.011850,0.000940,0.000610,-0.017548
0.011900,0.000873,-0.008545,-0.017853
0.011950,0.000859,0.003052,-0.010529
0.012000,0.000398,-0.005493,-0.002594
0.012050,-0.000386,-0.006714,-0.017853
0.012100,-0.000601,-0.004272,-0.000458
0.012150,-0.000329,0.006104,0.006256
0.012200,-0.000886,0.000000,-0.018158
0.012250,-0.001581,0.001221,-0.008698
0.012300,-0.001443,0.003052,-0.023499
0.012350,-0.000725,0.000610,-0.021057
0.012400,-0.000159,0.010376,-0.017700
0.012450,-0.000104,0.001831,-0.034943
0.012500,0.000219,0.006104,-0.020905
0.012550,0.000947,-0.006104,-0.033264
0.012600,0.001169,-0.002441,-0.001984
0.012650,0.001453,-0.008545,-0.021210
0.012700,0.002287,0.002441,-0.005798
0.012750,0.002337,0.009766,0.004883
0.012800,0.001827,-0.000610,-0.018616
0.012850,0.001495,0.004272,0.006714
0.012900,0.000817,0.009766,-0.021973
0.012950,-0.000046,0.006104,-0.032349
0.013000,-0.000547,-0.001831,-0.006561
0.013050,-0.000797,0.000000,-0.017395
0.013100,-0.000872,-0.001221,-0.010376
0.013150,-0.000915,0.007935,0.010529
0.013200,-0.001311,-0.005493,0.010376
0.013250,-0.001536,0.014648,-0.034485
0.013300,-0.000736,-0.010376,0.015411
0.013350,0.000034,0.002441,-0.028687
0.013400,-0.000669,-0.001831,-0.012360
0.013450,-0.001547,-0.007324,0.005951
0.013500,-0.001517,0.004272,0.006104
0.013550,-0.001746,0.017700,-0.003510
0.013600,-0.002178,-0.002441,-0.002441
0.013650,-0.001552,0.009155,-0.004272
0.013700,-0.000577,-0.001831,0.016937
0.013750,-0.000101,0.008545,-0.007324
0.013800,0.000102,0.001221,-0.008698
0.013850,0.000102,-0.007324,-0.013885
0.013900,0.000482,-0.003052,-0.007477
0.013950,0.000726,-0.001221,-0.024414
0.014000,0.000258,-0.004272,0.009003
0.014050,-0.000682,-0.004883,0.023193
0.014100,-0.001831,0.001831,-0.021820
0.014150,-0.002108,-0.004883,-0.014954
0.014200,-0.001230,0.000610,-0.027008
0.014250,0.000363,0.001831,-0.032959
0.014300,0.001399,0.012817,-0.001678
0.014350,0.001400,0.008545,-0.030518
0.014400,0.001851,0.004883,-0.007935
0.014450,0.002889,0.000000,-0.023041
0.014500,0.003534,0.003052,0.000000
0.014550,0.002961,-0.007324,0.021362
0.014600,0.001433,0.006104,-0.001678
