t [s],u [deg],y [deg],i [A]
0.000000,-0.000326,-0.007324,-0.015564
0.000050,0.000064,0.000000,0.008545
0.000100,-0.000037,0.001831,-0.025024
0.000150,-0.000559,-0.006714,-0.006866
0.000200,0.000220,0.000610,-0.021362
0.000250,0.001568,0.003052,-0.021667
0.000300,0.001760,-0.009766,-0.020905
0.000350,0.001617,0.004272,-0.028076
0.000400,0.001195,0.001831,-0.011444
0.000450,0.000450,-0.009766,-0.008392
0.000500,0.000313,-0.003662,-0.020142
0.000550,0.000214,-0.009155,-0.030060
0.000600,0.000061,0.003662,-0.021973
0.000650,0.000035,-0.003052,-0.017395
0.000700,-0.000177,-0.008545,-0.012207
0.000750,-0.000774,0.005493,-0.021667
0.000800,-0.001108,-0.001831,-0.026245
0.000850,-0.000316,0.011597,-0.028839
0.000900,0.000346,0.004883,-0.020599
0.000950,0.000207,0.001831,0.013885
0.001000,0.000263,0.000610,-0.011139
0.001050,0.000564,-0.006714,0.003662
0.001100,0.000390,0.005493,-0.006409
0.001150,-0.000211,0.003052,-0.020599
0.001200,-0.000292,0.010376,0.010529
0.001250,0.000113,-0.000610,-0.005798
0.001300,0.000301,-0.001221,-0.029907
0.001350,0.000413,0.007324,-0.010529
0.001400,0.000774,0.000000,0.023499
0.001450,0.000929,0.001831,-0.026093
0.001500,0.000617,0.004883,-0.031738
0.001550,0.000691,-0.006104,-0.003357
0.001600,0.000525,-0.003662,0.017090
0.001650,-0.000010,0.001831,-0.024567
0.001700,0.000044,0.000610,-0.023499
0.001750,-0.000293,0.000610,-0.026550
0.001800,-0.000796,-0.003052,0.006714
0.001850,-0.000685,-0.002441,-0.013275
0.001900,-0.000303,0.004883,0.008392
0.001950,-0.000176,-0.004272,0.009460
0.002000,-0.000464,0.002441,-0.010834
0.002050,-0.000770,-0.003052,-0.016174
0.002100,-0.000695,0.006714,-0.014801
0.002150,-0.000291,-0.007935,-0.009766
0.002200,-0.000120,0.000610,-0.023499
0.002250,-0.000342,-0.003052,0.001373
0.002300,-0.000870,-0.003052,-0.019684
0.002350,-0.001211,0.000610,-0.040283
0.002400,-0.001048,0.000000,-0.016937
0.002450,-0.001051,0.001221,-0.019989
0.002500,-0.001460,0.007935,-0.012512
0.002550,-0.001615,0.006104,-0.010223
0.002600,-0.001479,-0.001831,-0.011597
0.002650,-0.001318,0.002441,-0.005035
0.002700,-0.000927,0.009155,-0.003052
0.002750,-0.000331,0.008545,-0.009613
0.002800,0.000163,0.000000,0.016632
0.002850,0.000263,-0.006714,0.027466
0.002900,-0.000353,0.006714,-0.057983
0.002950,-0.000884,0.002441,-0.009155
0.003000,-0.000438,-0.001831,-0.023956
0.003050,0.000284,0.004272,0.032501
0.003100,0.000549,0.008545,-0.042572
0.003150,0.000511,0.007935,-0.018005
0.003200,0.000723,0.004272,-0.023804
0.003250,0.001590,0.001831,-0.012207
0.003300,0.002417,-0.001831,0.008240
0.003350,0.002019,0.000000,-0.013428
0.003400,0.001004,-0.005493,-0.006256
0.003450,0.000721,-0.001221,-0.004120
0.003500,0.000588,0.006714,-0.030365
0.003550,0.000158,0.007935,-0.025330
0.003600,0.000075,0.006104,-0.004120
0.003650,0.000133,-0.004883,-0.015564
0.003700,0.000449,-0.015869,0.015411
0.003750,0.000652,-0.005493,-0.020599
0.003800,0.000362,-0.006104,-0.001526
0.003850,0.000413,-0.010986,-0.014343
0.003900,0.001204,0.004883,-0.025635
0.003950,0.001860,-0.001221,-0.025940
0.004000,0.001615,-0.001221,-0.003052
0.004050,0.001419,0.003052,-0.022888
0.004100,0.001531,0.000610,-0.026703
0.004150,0.001421,-0.013428,-0.015717
0.004200,0.001541,0.004272,-0.020752
0.004250,0.002221,0.007324,-0.011139
0.004300,0.002316,-0.004272,-0.012512
0.004350,0.000990,0.009766,-0.013885
0.004400,0.000146,-0.000610,-0.007629
0.004450,0.000070,0.004272,-0.019684
0.004500,-0.000596,-0.003662,-0.022278
0.004550,-0.000650,-0.003662,0.014648
0.004600,0.000210,0.001221,0.021057
0.004650,0.000431,0.010986,-0.027161
0.004700,-0.000258,-0.006714,-0.011597
0.004750,-0.000905,0.000000,0.000610
0.004800,-0.000926,0.007935,-0.004730
0.004850,-0.000107,-0.004883,-0.003052
0.004900,0.000881,0.001221,-0.009003
0.004950,0.000953,-0.002441,-0.004883
0.005000,0.000636,0.009766,-0.024872
0.005050,0.000952,-0.003052,-0.001831
0.005100,0.001656,-0.007935,-0.009308
0.005150,0.002011,-0.007324,-0.004883
0.005200,0.001997,0.001221,0.010834
0.005250,0.001787,0.006714,-0.020294
0.005300,0.001038,-0.004883,-0.011749
0.005350,0.000191,0.005493,-0.007782
0.005400,0.000198,-0.005493,-0.018005
0.005450,0.000715,-0.001831,-0.022888
0.005500,0.001314,0.002441,0.003662
0.005550,0.001903,-0.002441,-0.003052
0.005600,0.001942,0.000610,0.000153
0.005650,0.001249,-0.001221,-0.009766
0.005700,0.000284,0.009155,-0.005035
0.005750,-0.000274,-0.001831,-0.011292
0.005800,-0.000508,-0.003662,-0.011597
0.005850,-0.001105,0.007324,-0.024872
0.005900,-0.001492,0.005493,-0.018768
0.005950,-0.001307,0.018311,0.007324
0.006000,-0.001184,0.007324,-0.012512
0.006050,-0.000967,0.001831,-0.005341
0.006100,-0.000135,0.016479,-0.001678
0.006150,0.000746,-0.005493,-0.003357
0.006200,0.000607,0.004272,-0.027161
0.006250,0.000406,0.000000,-0.017090
0.006300,0.001696,0.012817,-0.013275
0.006350,0.002854,0.010376,-0.020142
0.006400,0.001686,0.000610,-0.040894
0.006450,-0.001255,0.003662,-0.020905
0.006500,-0.004525,0.002441,-0.029755
0.006550,-0.007669,0.010986,-0.044403
0.006600,-0.011368,0.006714,-0.020752
0.006650,-0.013129,0.000610,0.000763
0.006700,-0.005022,-0.003662,-0.014954
0.006750,0.020760,0.004272,-0.014191
0.006800,0.067369,-0.002441,0.044403
0.006850,0.135348,-0.012207,0.100708
0.006900,0.225815,0.007935,0.195312
0.006950,0.329773,0.007324,0.272369
0.007000,0.414739,0.047607,0.322571
0.007050,0.440106,0.108032,0.236664
0.007100,0.388691,0.162354,0.073090
0.007150,0.280006,0.234985,-0.248413
0.007200,0.160605,0.302734,-0.568085
0.007250,0.073621,0.365601,-0.759125
0.007300,0.029797,0.354614,-0.649109
0.007350,0.012764,0.308228,-0.301514
0.007400,0.004709,0.247192,0.055084
0.007450,0.000631,0.150757,0.271301
0.007500,0.001121,0.092773,0.307007
0.007550,0.003288,0.034180,0.242615
0.007600,0.002870,0.024414,0.185242
0.007650,-0.000332,-0.006714,0.132294
0.007700,-0.002780,-0.017090,0.042725
0.007750,-0.003511,-0.004272,-0.001221
0.007800,-0.004415,0.006104,-0.042725
0.007850,-0.004994,0.006714,-0.038605
0.007900,-0.003610,0.010986,-0.035248
0.007950,-0.002009,0.007324,-0.015259
0.008000,-0.001839,0.009766,-0.007782
0.008050,-0.002010,0.000610,-0.015564
0.008100,-0.001705,0.008545,-0.017090
0.008150,-0.001155,0.003052,-0.017242
0.008200,-0.000658,0.009766,0.004120
0.008250,-0.000704,-0.003662,0.016327
0.008300,-0.001425,0.001831,-0.011902
0.008350,-0.002238,0.010986,-0.017853
0.008400,-0.002348,0.009155,-0.008698
0.008450,-0.001621,0.003052,-0.024109
0.008500,-0.000922,0.010376,-0.002289
0.008550,-0.000455,-0.005493,-0.003815
0.008600,-0.000435,-0.009766,0.005188
0.008650,-0.000599,0.008545,-0.004272
0.008700,-0.000654,-0.007935,-0.008850
0.008750,-0.000726,0.004272,-0.019531
0.008800,0.000038,-0.009766,-0.006561
0.008850,0.000655,0.001831,-0.007629
0.008900,0.000256,0.006714,0.003510
0.008950,0.000005,0.007324,-0.003510
0.009000,-0.000177,0.003662,-0.023956
0.009050,-0.000511,0.001221,0.000153
0.009100,-0.000164,0.012817,-0.007019
0.009150,0.000481,-0.004272,-0.011292
0.009200,0.000604,0.004883,-0.008087
0.009250,0.000832,0.010986,-0.009460
0.009300,0.000826,0.005493,-0.008850
0.009350,-0.000122,-0.001831,-0.008240
0.009400,-0.000988,0.003052,-0.002594
0.009450,-0.000829,-0.002441,-0.026398
0.009500,-0.000427,-0.003662,-0.006104
0.009550,-0.000846,0.008545,0.004120
0.009600,-0.001084,-0.007324,-0.016632
0.009650,-0.000564,-0.008545,-0.002441
0.009700,0.000226,0.011597,-0.023041
0.009750,0.001055,0.007324,-0.015717
0.009800,0.001111,0.017700,-0.004272
0.009850,0.000253,0.001221,-0.003967
0.009900,-0.000391,0.019531,-0.020142
0.009950,-0.000314,0.018311,-0.023041
0.010000,-0.000341,0.008545,-0.021973
0.010050,-0.000466,0.005493,-0.014648
0.010100,-0.000094,0.006104,-0.010376
0.010150,0.000008,0.000610,-0.017700
0.010200,-0.000480,-0.001221,-0.029907
0.010250,-0.000198,-0.002441,-0.038605
0.010300,0.000781,-0.001831,-0.004730
0.010350,0.000654,-0.001831,-0.025635
0.010400,-0.000579,0.001221,-0.009766
0.010450,-0.001225,0.004272,-0.025940
0.010500,-0.000974,0.001831,-0.000916
0.010550,-0.000484,0.008545,-0.022125
0.010600,-0.000099,-0.004272,-0.007477
0.010650,0.000023,0.004883,-0.002136
0.010700,0.000008,-0.001831,-0.001831
0.010750,-0.000004,0.012817,-0.008240
0.010800,0.000132,0.002441,-0.023956
0.010850,0.000201,0.001831,-0.009613
0.010900,-0.000120,0.001221,-0.002594
0.010950,-0.000730,-0.001221,-0.032196
0.011000,-0.000960,0.003662,-0.037231
0.011050,-0.000433,-0.012207,0.012970
0.011100,-0.000046,0.021362,-0.010834
0.011150,-0.000523,0.009766,-0.002747
0.011200,-0.001213,-0.004883,-0.031281
0.011250,-0.001538,0.000610,-0.012360
0.011300,-0.001575,0.000000,0.007477
0.011350,-0.000875,0.001831,-0.035706
0.011400,0.000186,-0.018311,0.007935
0.011450,0.000848,0.002441,0.022125
0.011500,0.001289,-0.003662,0.007019
0.011550,0.001225,-0.011597,-0.028687
0.011600,0.001115,0.019531,-0.008698
0.011650,0.001121,0.009155,-0.012360
0.011700,0.000819,0.001221,0.006256
0.011750,0.001112,0.002441,-0.003967
0.011800,0.001855,0.014648,0.010834
0.011850,0.001645,0.009155,-0.017853
0.011900,0.001124,0.012817,-0.010681
0.011950,0.001129,0.012207,-0.039062
0.012000,0.000987,0.011597,-0.026245
0.012050,0.000212,0.005493,0.020294
0.012100,-0.000969,0.007935,0.002136
0.012150,-0.001484,0.000610,-0.012817
0.012200,-0.001563,0.008545,-0.000153
0.012250,-0.001638,0.004883,-0.025330
0.012300,-0.001400,0.012817,-0.029907
0.012350,-0.000755,0.009766,-0.009613
0.012400,0.000206,0.003662,-0.014801
0.012450,0.000917,-0.012817,0.000153
0.012500,0.001436,0.009766,-0.002899
0.012550,0.001733,0.001831,0.013428
0.012600,0.002057,0.009766,0.002289
0.012650,0.002827,-0.010376,-0.010071
0.012700,0.003160,0.003662,-0.020905
0.012750,0.002444,0.005493,-0.008392
0.012800,0.001505,0.001831,-0.018768
0.012850,0.000972,0.007324,-0.035706
0.012900,-0.000098,-0.007935,0.003357
0.012950,-0.001028,0.006714,0.000305
0.013000,-0.000866,0.001831,0.014343
0.013050,-0.000851,0.013428,-0.026093
0.013100,-0.000642,0.005493,-0.037384
0.013150,-0.000676,0.009766,0.003052
0.013200,-0.001388,-0.006104,-0.017090
0.013250,-0.001227,-0.007935,-0.000916
0.013300,-0.000672,-0.004883,-0.036621
0.013350,-0.000462,-0.005493,0.009766
0.013400,-0.000667,-0.003662,0.013580
0.013450,-0.001222,-0.008545,-0.021210
0.013500,-0.001551,0.004272,-0.029755
0.013550,-0.001982,0.010986,-0.008850
0.013600,-0.002173,0.002441,0.016327
0.013650,-0.001230,0.014648,-0.021515
0.013700,-0.000267,0.004272,0.004730
0.013750,-0.000331,0.009766,-0.024414
0.013800,-0.000196,0.006714,-0.008698
0.013850,0.000311,0.012207,-0.013428
0.013900,0.000254,-0.001221,0.002289
0.013950,-0.000090,0.002441,-0.004578
0.014000,0.000004,0.000000,-0.026093
0.014050,0.000043,-0.005493,-0.015564
0.014100,-0.001017,0.011597,-0.015411
0.014150,-0.001404,-0.006104,-0.003357
0.014200,-0.000421,0.001221,-0.023193
0.014250,0.000615,-0.002441,-0.024109
0.014300,0.001531,-0.003052,-0.023193
0.014350,0.001876,-0.001831,0.000916
0.014400,0.001949,0.010376,-0.001068
0.014450,0.002172,-0.009155,-0.028229
0.014500,0.002394,0.005493,-0.026703
0.014550,0.002483,-0.004272,-0.000458
0.014600,0.001691,0.009155,-0.009766
