t [s],u [deg],y [deg],i [A]
0.000000,0.000014,0.013428,0.001678
0.000050,-0.000199,-0.000610,-0.015717
0.000100,-0.000719,0.010986,-0.005646
0.000150,-0.001228,-0.009155,-0.010986
0.000200,-0.001212,-0.005493,-0.019531
0.000250,-0.000431,0.012817,-0.034943
0.000300,0.000495,0.006104,-0.021973
0.000350,0.000666,-0.000610,-0.016174
0.000400,0.001108,-0.000610,-0.015564
0.000450,0.001280,0.015869,-0.015411
0.000500,0.000626,0.014038,-0.022583
0.000550,0.000423,-0.011597,-0.011139
0.000600,-0.000101,0.003052,-0.020447
0.000650,-0.000786,0.001221,-0.038300
0.000700,-0.000887,-0.000610,-0.004120
0.000750,-0.000946,0.001221,-0.011749
0.000800,-0.000931,-0.001831,0.009308
0.000850,-0.000413,-0.004883,0.004578
0.000900,0.000235,0.002441,-0.003815
0.000950,0.000502,0.004272,-0.017395
0.001000,0.000115,-0.002441,-0.028992
0.001050,-0.000957,-0.007324,-0.013123
0.001100,-0.001387,0.003662,-0.016327
0.001150,-0.000843,-0.001221,-0.014648
0.001200,-0.000144,0.007324,-0.018463
0.001250,0.000782,-0.002441,-0.003052
0.001300,0.001673,-0.004272,-0.003052
0.001350,0.002362,0.011597,-0.011749
0.001400,0.002352,0.006104,-0.015717
0.001450,0.001289,-0.006714,-0.018311
0.001500,0.000262,0.004883,-0.006714
0.001550,-0.000311,-0.014648,-0.009308
0.001600,-0.000469,0.009155,-0.008240
0.001650,-0.000440,0.010986,-0.009766
0.001700,-0.000484,0.002441,-0.000305
0.001750,-0.000172,-0.009155,-0.008392
0.001800,0.000093,-0.000610,-0.011139
0.001850,-0.000612,0.003662,-0.031891
0.001900,-0.001456,-0.006104,-0.024109
0.001950,-0.001162,-0.004883,-0.014648
0.002000,-0.000772,-0.001221,-0.010071
0.002050,-0.000791,0.003662,-0.026093
0.002100,-0.000334,-0.008545,-0.012665
0.002150,-0.000062,0.012207,-0.001526
0.002200,-0.000370,0.004883,-0.012665
0.002250,-0.000050,0.003052,-0.015259
0.002300,0.000289,0.003662,-0.016022
0.002350,-0.000478,0.001221,-0.013885
0.002400,-0.001182,0.007324,-0.020142
0.002450,-0.001065,-0.002441,0.009155
0.002500,-0.000330,0.002441,-0.009918
0.002550,0.000520,-0.007324,-0.015564
0.002600,0.000895,-0.013428,0.006561
0.002650,0.001019,0.002441,-0.006256
0.002700,0.000953,0.001221,-0.006866
0.002750,0.000532,-0.007935,-0.001221
0.002800,0.000486,0.001831,-0.021210
0.002850,0.000515,-0.007935,-0.014801
0.002900,0.000134,-0.012817,-0.004578
0.002950,0.000256,0.006714,-0.008240
0.003000,0.000647,0.005493,-0.012512
0.003050,0.000412,0.002441,-0.008240
0.003100,0.000258,0.011597,-0.021057
0.003150,0.000885,-0.001221,-0.018463
0.003200,0.001616,0.007935,-0.011902
0.003250,0.002312,0.014038,0.007477
0.003300,0.002266,-0.009155,-0.004730
0.003350,0.000979,0.001221,-0.002441
0.003400,0.000027,0.005493,0.010986
0.003450,-0.000137,0.004272,-0.037537
0.003500,-0.000200,0.003052,-0.010223
0.003550,-0.000267,-0.000610,0.005951
0.003600,-0.000247,-0.003052,-0.008087
0.003650,-0.000050,0.006714,-0.028229
0.003700,-0.000027,-0.004883,-0.019989
0.003750,-0.000753,-0.003662,-0.012970
0.003800,-0.001426,0.001221,-0.019379
0.003850,-0.000954,-0.001831,-0.018921
0.003900,0.000185,-0.004883,-0.025787
0.003950,0.001350,-0.004883,-0.024872
0.004000,0.002155,0.012817,-0.021820
0.004050,0.002423,-0.001221,-0.003815
0.004100,0.002270,0.006714,0.009155
0.004150,0.001628,-0.003052,-0.025177
0.004200,0.001147,0.004272,0.002136
0.004250,0.001154,-0.000610,0.000153
0.004300,0.001206,0.000610,-0.016632
0.004350,0.001176,-0.006104,-0.001526
0.004400,0.000566,0.014038,-0.023651
0.004450,0.000012,0.004272,-0.002747
0.004500,0.000227,0.004883,0.000305
0.004550,0.000564,0.004883,0.005341
0.004600,0.000781,0.003662,0.005493
0.004650,0.001159,-0.001221,-0.000458
0.004700,0.001632,0.005493,-0.032349
0.004750,0.001558,0.000610,-0.007935
0.004800,0.000988,-0.000610,-0.009308
0.004850,0.000965,0.006104,-0.012817
0.004900,0.001471,0.003052,-0.021057
0.004950,0.001302,0.001831,-0.000916
0.005000,0.000540,0.001831,-0.004120
0.005050,-0.000055,-0.010376,-0.022888
0.005100,-0.000469,0.006714,-0.003357
0.005150,-0.000694,0.006714,-0.023346
0.005200,-0.000497,-0.003052,-0.002594
0.005250,-0.000158,0.001831,-0.028687
0.005300,-0.000072,-0.003052,-0.009918
0.005350,-0.000254,-0.009155,-0.008240
0.005400,-0.000681,0.011597,0.002747
0.005450,-0.000734,0.003662,-0.008698
0.005500,-0.000029,0.001221,-0.010223
0.005550,0.000629,0.001831,-0.010071
0.005600,0.000654,0.004272,-0.000916
0.005650,0.000981,0.006714,-0.030670
0.005700,0.003115,0.000610,-0.002594
0.005750,0.006142,0.003052,-0.006866
0.005800,0.008537,-0.003052,-0.014038
0.005850,0.010668,0.012817,-0.008240
0.005900,0.012388,0.004272,-0.001068
0.005950,0.012983,0.008545,0.023651
0.006000,0.011827,0.018921,-0.015564
0.006050,0.008038,0.000610,-0.007782
0.006100,0.000214,0.021973,-0.057526
0.006150,-0.012491,0.027466,-0.035248
0.006200,-0.028689,0.018311,-0.049744
0.006250,-0.045788,0.012817,-0.070038
0.006300,-0.062311,-0.003052,-0.080872
0.006350,-0.077238,-0.009155,-0.047302
0.006400,-0.086260,0.007324,-0.046234
0.006450,-0.083797,-0.027466,-0.018616
0.006500,-0.066125,-0.037842,0.002594
0.006550,-0.030876,-0.050049,0.062561
0.006600,0.024115,-0.074463,0.140533
0.006650,0.099823,-0.081177,0.199585
0.006700,0.195039,-0.057373,0.236816
0.006750,0.306612,-0.039673,0.312347
0.006800,0.427391,0.006714,0.314941
0.006850,0.549188,0.051880,0.294189
0.006900,0.664163,0.151367,0.223083
0.006950,0.763169,0.222778,0.159149
0.007000,0.838320,0.321655,0.058899
0.007050,0.884445,0.431519,-0.031128
0.007100,0.897716,0.538940,-0.150604
0.007150,0.876623,0.635986,-0.269470
0.007200,0.823654,0.729370,-0.361633
0.007250,0.743851,0.807495,-0.466614
0.007300,0.643487,0.843506,-0.491943
0.007350,0.530704,0.841064,-0.501099
0.007400,0.414270,0.820923,-0.446930
0.007450,0.301178,0.773315,-0.371704
0.007500,0.198297,0.690308,-0.264130
0.007550,0.110963,0.591431,-0.097656
0.007600,0.041277,0.503540,0.018921
0.007650,-0.010320,0.394287,0.072632
0.007700,-0.044660,0.294189,0.173187
0.007750,-0.063246,0.197754,0.189209
0.007800,-0.069158,0.106812,0.255890
0.007850,-0.066271,0.038452,0.290375
0.007900,-0.056744,-0.013428,0.240936
0.007950,-0.043073,-0.028687,0.161285
0.008000,-0.029413,-0.045166,0.130768
0.008050,-0.017774,-0.057983,0.095978
0.008100,-0.008153,-0.038452,0.039978
0.008150,-0.001517,-0.053711,0.014954
0.008200,0.002160,-0.037842,-0.017700
0.008250,0.004149,-0.010986,-0.061340
0.008300,0.004587,-0.011597,-0.061493
0.008350,0.003579,-0.001831,-0.080414
0.008400,0.002078,0.001221,-0.066071
0.008450,0.000751,0.012207,-0.055084
0.008500,-0.000442,0.004883,-0.036011
0.008550,-0.001059,0.020752,-0.038910
0.008600,-0.001189,0.010986,-0.025482
0.008650,-0.001329,0.012207,0.002289
0.008700,-0.001151,0.012817,-0.009766
0.008750,-0.001247,0.002441,-0.004730
0.008800,-0.001288,0.005493,-0.041199
0.008850,-0.001061,0.001221,-0.005951
0.008900,-0.001600,0.011597,-0.020599
0.008950,-0.001851,0.010376,-0.012512
0.009000,-0.001623,-0.011597,-0.000610
0.009050,-0.001700,0.004883,-0.007477
0.009100,-0.001273,0.003662,-0.004883
0.009150,-0.000808,-0.003662,-0.023346
0.009200,-0.001044,0.007324,-0.005341
0.009250,-0.001233,0.003052,-0.024567
0.009300,-0.000844,-0.005493,-0.004272
0.009350,-0.000092,0.006714,-0.001221
0.009400,0.000310,0.020142,-0.000763
0.009450,-0.000130,0.015869,-0.005341
0.009500,-0.000655,0.013428,-0.011139
0.009550,-0.000643,0.000610,0.004883
0.009600,-0.000426,0.010986,-0.020447
0.009650,0.000086,0.003662,0.001526
0.009700,0.000387,0.018921,-0.012360
0.009750,0.000475,0.009155,-0.005798
0.009800,0.001073,0.003052,0.012665
0.009850,0.000876,-0.007324,-0.025940
0.009900,-0.000277,0.001221,-0.000153
0.009950,-0.000789,-0.001221,-0.013428
0.010000,-0.000780,0.000000,-0.024414
0.010050,-0.000541,0.001831,0.006409
0.010100,-0.000326,-0.003052,-0.014496
0.010150,-0.000612,0.006714,-0.021057
0.010200,-0.000672,-0.003662,-0.022430
0.010250,-0.000042,0.003052,-0.023499
0.010300,0.000601,-0.004883,-0.004730
0.010350,0.000491,0.001831,-0.013123
0.010400,-0.000225,-0.006104,0.004425
0.010450,-0.000852,0.004883,-0.014801
0.010500,-0.000552,-0.000610,-0.009155
0.010550,-0.000106,0.006104,-0.028534
0.010600,-0.000824,0.003662,-0.027161
0.010650,-0.001051,0.009155,-0.006866
0.010700,-0.000208,-0.004883,-0.013428
0.010750,0.000010,-0.000610,-0.007935
0.010800,-0.000697,0.007935,-0.000763
0.010850,-0.001747,-0.003052,-0.025330
0.010900,-0.002476,-0.000610,0.000153
0.010950,-0.002225,-0.001831,-0.027618
0.011000,-0.001680,0.001221,-0.015259
0.011050,-0.002060,0.004272,-0.013885
0.011100,-0.002771,0.003052,-0.011749
0.011150,-0.003084,-0.005493,-0.022125
0.011200,-0.002955,0.001831,-0.029297
0.011250,-0.002202,-0.005493,-0.028076
0.011300,-0.001451,0.005493,-0.000610
0.011350,-0.001064,0.006714,0.002289
0.011400,-0.000632,-0.001831,0.002136
0.011450,-0.000013,-0.007324,0.001526
0.011500,0.000525,0.015869,-0.003662
0.011550,0.000606,0.003052,-0.019073
0.011600,0.000320,0.002441,-0.005951
0.011650,0.000077,-0.003052,0.008087
0.011700,-0.000036,-0.003052,-0.022583
0.011750,0.000242,0.007324,-0.011749
0.011800,0.000755,-0.002441,-0.018311
0.011850,0.000790,0.010376,0.009003
0.011900,0.000794,-0.003662,-0.011902
0.011950,0.000455,0.000000,-0.010529
0.012000,-0.000517,0.000610,-0.023193
0.012050,-0.000848,0.007935,0.003510
0.012100,-0.000918,0.008545,-0.019073
0.012150,-0.001151,-0.011597,-0.008850
0.012200,-0.000668,0.000000,0.009613
0.012250,0.000221,0.002441,-0.000610
0.012300,0.000639,-0.000610,-0.007019
0.012350,0.000571,0.000610,-0.005951
0.012400,0.000298,-0.001831,-0.002747
0.012450,-0.000174,-0.006714,-0.008850
0.012500,-0.001137,0.001831,-0.011597
0.012550,-0.001973,-0.005493,-0.006104
0.012600,-0.001250,0.008545,-0.011597
0.012650,0.000159,0.010376,-0.007629
0.012700,0.000742,0.000000,-0.017090
0.012750,0.000783,-0.001221,0.002289
0.012800,0.000434,-0.007935,-0.000763
0.012850,0.000476,0.005493,-0.023804
0.012900,0.000531,0.010986,-0.019073
0.012950,-0.000532,-0.007935,-0.034637
0.013000,-0.001473,0.006714,-0.010376
0.013050,-0.002131,0.005493,-0.009613
0.013100,-0.002623,0.009766,-0.000763
0.013150,-0.002701,0.014038,-0.011139
0.013200,-0.003005,0.007324,-0.008087
0.013250,-0.002865,0.003662,-0.015106
0.013300,-0.002133,-0.004272,0.007935
0.013350,-0.001529,0.000000,-0.017242
0.013400,-0.000761,-0.011597,-0.010529
0.013450,0.000180,0.000610,0.002747
0.013500,0.000893,-0.004272,0.003204
0.013550,0.001133,-0.004272,-0.021210
0.013600,0.001080,0.000000,0.009766
0.013650,0.000235,-0.004883,-0.028229
0.013700,-0.001645,-0.001831,-0.032196
0.013750,-0.002675,0.006714,-0.016479
0.013800,-0.002519,-0.000610,-0.007629
0.013850,-0.001955,0.006714,-0.008545
0.013900,-0.000490,-0.011597,-0.011139
0.013950,0.001145,0.001221,-0.000458
0.014000,0.001816,0.009766,-0.025330
0.014050,0.001443,0.003662,0.018768
0.014100,0.000254,0.006104,-0.004578
0.014150,-0.000693,-0.009155,0.016785
0.014200,-0.000412,0.012817,-0.054779
0.014250,0.000116,0.009155,-0.042725
0.014300,0.000210,0.001221,-0.004730
0.014350,0.000733,0.004883,0.017395
0.014400,0.001503,-0.004272,0.000610
0.014450,0.002364,0.007935,-0.028076
0.014500,0.002946,-0.002441,-0.021820
0.014550,0.002395,0.017090,-0.001373
0.014600,0.001289,-0.004272,-0.013123
