t [s],u [deg],y [deg],i [A]
0.000000,-0.001721,0.004272,-0.018921
0.000050,-0.001865,-0.005493,-0.011292
0.000100,-0.001943,-0.004272,-0.013275
0.000150,-0.002570,-0.013428,-0.002747
0.000200,-0.002350,-0.002441,-0.024872
0.000250,-0.001294,-0.001221,-0.019226
0.000300,-0.000491,0.004883,-0.011292
0.000350,-0.000170,-0.004883,-0.003357
0.000400,-0.000564,-0.003662,-0.013123
0.000450,-0.001417,-0.009766,-0.023956
0.000500,-0.001584,-0.006104,-0.013580
0.000550,-0.001177,0.004883,-0.017242
0.000600,-0.001170,-0.009766,-0.012817
0.000650,-0.000833,0.002441,-0.021667
0.000700,0.000247,0.002441,-0.014038
0.000750,0.000942,0.002441,-0.020294
0.000800,0.001175,0.010986,-0.008545
0.000850,0.001062,-0.001221,-0.007172
0.000900,0.000463,0.003662,0.003204
0.000950,-0.000362,0.000610,-0.019836
0.001000,-0.000887,0.001831,-0.023193
0.001050,-0.000587,-0.005493,-0.016327
0.001100,-0.000127,0.010986,-0.006104
0.001150,0.000163,0.000610,-0.011444
0.001200,0.000627,-0.017090,0.004883
0.001250,0.001237,-0.003052,0.016174
0.001300,0.001724,0.003662,-0.005646
0.001350,0.001820,0.005493,-0.017395
0.001400,0.001543,0.001221,-0.014343
0.001450,0.000998,0.004883,-0.021973
0.001500,0.000350,-0.009155,-0.003052
0.001550,-0.000459,0.004883,-0.005493
0.001600,-0.000856,0.003052,-0.008545
0.001650,-0.000734,0.000610,-0.002136
0.001700,-0.000437,0.005493,-0.004883
0.001750,0.000157,0.007935,-0.010071
0.001800,0.000253,-0.005493,-0.011749
0.001850,-0.000289,0.003662,-0.005798
0.001900,-0.001269,0.007935,-0.004120
0.001950,-0.002106,0.002441,-0.004425
0.002000,-0.001790,0.000000,-0.016937
0.002050,-0.000538,-0.012207,-0.003357
0.002100,0.000273,-0.011597,-0.023651
0.002150,0.000055,-0.005493,0.012360
0.002200,-0.000260,-0.003052,0.003357
0.002250,-0.000397,-0.005493,-0.000610
0.002300,-0.000486,-0.006714,-0.027618
0.002350,-0.000660,-0.013428,-0.003357
0.002400,-0.000406,0.000610,-0.034332
0.002450,0.000082,0.004883,-0.027618
0.002500,0.000351,0.002441,-0.017242
0.002550,0.000596,-0.007324,-0.010986
0.002600,0.000703,-0.001221,-0.028534
0.002650,0.001151,0.003052,-0.006714
0.002700,0.001222,0.007935,-0.025482
0.002750,0.000358,0.009155,-0.001068
0.002800,-0.000378,0.001831,-0.013123
0.002850,-0.000743,0.002441,-0.026855
0.002900,-0.000840,0.007324,-0.004120
0.002950,-0.000450,0.011597,-0.032196
0.003000,0.000141,0.002441,-0.003815
0.003050,0.000646,-0.003052,-0.009766
0.003100,0.000902,0.004883,-0.010834
0.003150,0.000675,0.009155,-0.015717
0.003200,-0.000082,-0.004272,-0.030518
0.003250,-0.000594,-0.006104,-0.004425
0.003300,-0.000850,0.009155,-0.026398
0.003350,-0.001471,-0.015259,-0.002441
0.003400,-0.001702,0.006104,-0.015259
0.003450,-0.001781,0.000610,-0.004272
0.003500,-0.001970,0.011597,-0.006866
0.003550,-0.001704,0.010376,-0.001526
0.003600,-0.001146,0.001831,-0.001831
0.003650,-0.000777,0.003662,-0.023956
0.003700,-0.001259,-0.007324,0.007782
0.003750,-0.002144,0.002441,0.008698
0.003800,-0.001993,0.002441,-0.036774
0.003850,-0.001162,0.001831,-0.015106
0.003900,-0.000820,0.004883,-0.000305
0.003950,-0.000311,0.001221,0.001068
0.004000,0.000975,0.003052,-0.002747
0.004050,0.001969,-0.001221,0.011444
0.004100,0.002052,0.001221,0.012665
0.004150,0.001410,0.003662,-0.015869
0.004200,0.000740,0.006714,-0.016632
0.004250,0.000768,0.007935,-0.014191
0.004300,0.000964,0.003662,-0.016479
0.004350,0.000776,0.000610,-0.016327
0.004400,0.000079,0.002441,-0.022125
0.004450,-0.000555,0.010986,-0.012817
0.004500,-0.000678,-0.004883,-0.022736
0.004550,-0.000606,-0.000610,-0.008392
0.004600,-0.000471,-0.000610,0.008392
0.004650,0.000015,-0.003052,-0.016632
0.004700,0.000786,-0.001221,-0.009613
0.004750,0.001016,0.007935,-0.014801
0.004800,0.000097,0.006104,-0.003815
0.004850,-0.001038,0.002441,0.000610
0.004900,-0.001365,0.006714,-0.009003
0.004950,-0.001361,-0.009155,-0.016632
0.005000,-0.000835,-0.003052,0.000153
0.005050,-0.000329,0.015869,0.011749
0.005100,-0.000732,0.009766,-0.014496
0.005150,-0.001018,-0.007935,-0.017853
0.005200,-0.001110,-0.003052,0.005951
0.005250,-0.001339,0.000610,-0.004272
0.005300,-0.000791,0.008545,0.000610
0.005350,0.000262,0.004272,-0.026550
0.005400,0.001071,-0.000610,0.011597
0.005450,0.001350,-0.015259,0.022583
0.005500,0.000322,-0.001831,-0.006256
0.005550,-0.001075,0.005493,-0.029449
0.005600,-0.000561,0.015869,-0.034180
0.005650,0.001414,0.018311,-0.017395
0.005700,0.003547,0.003052,-0.023346
0.005750,0.006558,-0.007324,-0.000763
0.005800,0.010054,-0.007935,0.009460
0.005850,0.012868,0.003662,0.024261
0.005900,0.014333,0.009155,-0.007477
0.005950,0.013737,0.018311,-0.011139
0.006000,0.010846,0.012207,-0.018921
0.006050,0.005060,0.008545,-0.058746
0.006100,-0.004693,0.010986,-0.028839
0.006150,-0.019091,0.032959,-0.052643
0.006200,-0.037329,0.012207,-0.010834
0.006250,-0.057288,0.011597,-0.022583
0.006300,-0.076109,0.006104,-0.076904
0.006350,-0.090072,-0.004883,-0.070953
0.006400,-0.095372,-0.018311,-0.034637
0.006450,-0.087240,-0.023804,-0.005798
0.006500,-0.060177,-0.037842,0.040588
0.006550,-0.010886,-0.070801,0.109100
0.006600,0.061267,-0.074463,0.169067
0.006650,0.156058,-0.068359,0.227051
0.006700,0.270738,-0.062866,0.309753
0.006750,0.398499,-0.023193,0.298004
0.006800,0.531054,0.014648,0.368500
0.006850,0.659291,0.086060,0.294647
0.006900,0.773406,0.196533,0.196381
0.006950,0.864524,0.283203,0.135040
0.007000,0.925188,0.401611,0.008392
0.007050,0.949666,0.535278,-0.144501
0.007100,0.935730,0.648804,-0.266876
0.007150,0.885221,0.725708,-0.363464
0.007200,0.802981,0.824585,-0.475769
0.007250,0.696018,0.874023,-0.552979
0.007300,0.572808,0.897827,-0.585480
0.007350,0.442997,0.885620,-0.522919
0.007400,0.315852,0.815430,-0.409698
0.007450,0.198754,0.748901,-0.302887
0.007500,0.098149,0.637817,-0.153351
0.007550,0.019168,0.538940,-0.023804
0.007600,-0.037203,0.412598,0.087585
0.007650,-0.073109,0.294189,0.162048
0.007700,-0.090396,0.192871,0.238953
0.007750,-0.091921,0.101929,0.303802
0.007800,-0.083476,0.025024,0.299225
0.007850,-0.069821,-0.018311,0.281219
0.007900,-0.052724,-0.060425,0.230103
0.007950,-0.034864,-0.078735,0.156250
0.008000,-0.019438,-0.075073,0.072632
0.008050,-0.007604,-0.064087,0.034485
0.008100,0.000180,-0.050659,-0.004883
0.008150,0.004465,-0.029907,-0.037994
0.008200,0.006451,-0.008545,-0.053864
0.008250,0.006595,-0.003052,-0.070038
0.008300,0.005592,-0.001221,-0.059509
0.008350,0.003856,0.022583,-0.035706
0.008400,0.001635,0.007324,-0.050812
0.008450,-0.000358,0.019531,-0.034180
0.008500,-0.001437,0.010986,-0.034790
0.008550,-0.001774,-0.001831,-0.000153
0.008600,-0.001795,0.014648,-0.000153
0.008650,-0.001662,-0.006714,0.000916
0.008700,-0.001581,0.004883,-0.000305
0.008750,-0.001492,-0.012207,0.001984
0.008800,-0.002043,0.010986,0.002899
0.008850,-0.003202,0.003662,-0.010071
0.008900,-0.003537,0.001221,-0.013885
0.008950,-0.002630,0.007324,-0.008545
0.009000,-0.001920,0.006714,0.008698
0.009050,-0.001628,0.016479,-0.019226
0.009100,-0.001154,-0.003052,-0.026550
0.009150,-0.001456,0.003052,-0.015564
0.009200,-0.002121,0.001831,0.001678
0.009250,-0.001937,-0.002441,-0.026550
0.009300,-0.001527,0.006104,-0.019073
0.009350,-0.001623,0.006714,-0.016479
0.009400,-0.001878,0.007324,0.005341
0.009450,-0.001457,0.000000,-0.012054
0.009500,-0.000212,0.001831,-0.026398
0.009550,0.000581,0.000610,0.002136
0.009600,0.000404,-0.004883,-0.010071
0.009650,-0.000515,-0.001831,-0.002747
0.009700,-0.001694,-0.008545,-0.018921
0.009750,-0.002147,-0.007324,-0.021210
0.009800,-0.002023,-0.007324,-0.022583
0.009850,-0.001576,-0.004272,-0.022736
0.009900,-0.000932,0.001221,-0.010529
0.009950,-0.000758,-0.007324,0.010376
0.010000,-0.000668,0.001221,-0.001984
0.010050,-0.000225,-0.004883,-0.013275
0.010100,0.000094,-0.001221,-0.010834
0.010150,0.000132,0.003052,0.008240
0.010200,-0.000203,0.004272,0.001526
0.010250,-0.000225,-0.006104,-0.015717
0.010300,-0.000024,0.009766,0.001678
0.010350,-0.000523,-0.005493,-0.011139
0.010400,-0.000771,-0.004272,-0.011444
0.010450,-0.000647,0.000000,-0.018768
0.010500,-0.000892,0.000610,0.000153
0.010550,-0.000784,-0.001221,-0.014496
0.010600,-0.000354,0.003052,0.015411
0.010650,-0.000255,-0.003662,-0.019989
0.010700,-0.000467,0.002441,-0.016174
0.010750,-0.001133,-0.004272,-0.016479
0.010800,-0.001684,-0.003052,0.000458
0.010850,-0.001493,0.013428,-0.029449
0.010900,-0.001244,-0.001831,-0.015411
0.010950,-0.001250,0.004272,-0.013885
0.011000,-0.000817,0.002441,-0.015411
0.011050,-0.000546,-0.010376,-0.000916
0.011100,-0.000766,-0.000610,-0.021362
0.011150,-0.000409,0.002441,-0.006561
0.011200,0.000158,0.001831,-0.009003
0.011250,0.000722,-0.009155,-0.005188
0.011300,0.001140,0.013428,-0.015106
0.011350,0.000735,-0.001831,-0.000153
0.011400,-0.000512,0.000000,-0.019836
0.011450,-0.002045,0.003662,-0.013123
0.011500,-0.002413,0.000000,-0.016022
0.011550,-0.001645,0.011597,-0.007782
0.011600,-0.001075,0.003052,-0.013428
0.011650,-0.000920,0.001221,0.015106
0.011700,-0.000608,0.004272,-0.014191
0.011750,-0.000374,0.006104,-0.003204
0.011800,-0.000613,0.010986,-0.002441
0.011850,-0.000346,-0.001831,0.014038
0.011900,0.000002,0.003662,0.003967
0.011950,-0.000709,-0.006104,-0.004730
0.012000,-0.001245,-0.006104,-0.005493
0.012050,-0.001040,0.000000,-0.033112
0.012100,-0.001428,0.007935,-0.018616
0.012150,-0.002279,-0.003052,0.005035
0.012200,-0.001652,-0.001221,-0.013580
0.012250,0.000239,0.003662,-0.029755
0.012300,0.000896,-0.003662,-0.019836
0.012350,0.000565,-0.001221,-0.006104
0.012400,0.000731,-0.001221,0.001373
0.012450,0.000973,-0.008545,-0.010834
0.012500,0.001056,-0.000610,-0.006561
0.012550,0.001458,-0.009155,0.002136
0.012600,0.001866,0.014648,-0.011292
0.012650,0.001453,0.003662,-0.021210
0.012700,0.000831,-0.000610,-0.003357
0.012750,0.000294,0.010986,-0.000305
0.012800,-0.000582,0.012207,-0.013733
0.012850,-0.001137,0.003662,-0.029449
0.012900,-0.001516,-0.003052,-0.018005
0.012950,-0.001734,0.001831,-0.018005
0.013000,-0.001206,0.004883,0.006561
0.013050,-0.000817,0.006714,-0.011902
0.013100,-0.000932,0.006714,0.002289
0.013150,-0.000852,0.004272,-0.013428
0.013200,-0.000693,0.006714,-0.006104
0.013250,-0.000690,-0.004883,0.001831
0.013300,-0.000652,-0.000610,0.009308
0.013350,-0.000612,0.011597,0.003662
0.013400,-0.001019,0.002441,-0.034790
0.013450,-0.001786,0.001221,-0.012512
0.013500,-0.001689,-0.001831,-0.001831
0.013550,-0.000684,0.015259,-0.020447
0.013600,-0.000323,0.012817,-0.007172
0.013650,-0.000485,0.007324,-0.011292
0.013700,0.000163,0.000610,0.025635
0.013750,0.000886,0.010986,-0.034485
0.013800,0.000839,0.003052,-0.034790
0.013850,0.000629,0.000000,-0.021667
0.013900,0.000235,0.000000,-0.012665
0.013950,-0.000425,-0.002441,-0.005493
0.014000,-0.000586,-0.018921,-0.018463
0.014050,0.000166,0.000610,-0.007019
0.014100,0.001023,-0.014038,-0.006104
0.014150,0.001038,-0.006104,-0.031128
0.014200,0.000179,0.005493,-0.015717
0.014250,-0.000271,0.003662,-0.031128
0.014300,0.000551,-0.000610,0.002289
0.014350,0.002243,0.000610,-0.017700
0.014400,0.003934,0.005493,0.028839
0.014450,0.004490,-0.009766,-0.006561
0.014500,0.003899,0.003052,-0.011749
0.014550,0.003103,0.012817,-0.010071
0.014600,0.002019,0.002441,-0.033264
