t [s],u [deg],y [deg],i [A]
0.000000,-0.000053,0.012817,-0.010071
0.000050,0.000210,-0.000610,-0.016022
0.000100,0.000653,0.001221,0.000610
0.000150,0.000759,0.002441,-0.026703
0.000200,-0.000030,0.003662,-0.010529
0.000250,-0.001467,-0.003052,-0.007019
0.000300,-0.002063,-0.004883,-0.020447
0.000350,-0.000900,0.005493,-0.007172
0.000400,0.000128,0.006714,-0.011597
0.000450,0.000072,0.000000,0.002899
0.000500,0.000106,-0.004272,-0.010681
0.000550,-0.000229,-0.001831,-0.014343
0.000600,-0.000695,-0.010376,-0.019379
0.000650,-0.000494,0.009766,0.003662
0.000700,-0.000853,0.005493,-0.028687
0.000750,-0.001609,0.005493,-0.024719
0.000800,-0.001666,0.001831,0.004120
0.000850,-0.001678,0.005493,0.003357
0.000900,-0.001766,0.007324,-0.035248
0.000950,-0.001328,-0.009155,-0.021362
0.001000,-0.000328,0.004272,-0.006714
0.001050,0.000985,-0.006104,-0.004425
0.001100,0.001322,0.007324,-0.009613
0.001150,0.000057,0.003052,-0.006256
0.001200,-0.001417,0.005493,-0.024719
0.001250,-0.001951,0.008545,-0.035858
0.001300,-0.001071,0.010376,-0.018158
0.001350,0.001065,0.000610,-0.015717
0.001400,0.002540,0.005493,0.016479
0.001450,0.002110,-0.000610,-0.002289
0.001500,0.001136,0.000000,-0.004120
0.001550,0.000433,-0.007324,-0.021973
0.001600,-0.000197,0.001221,-0.014191
0.001650,-0.000075,0.011597,-0.019531
0.001700,0.000445,0.004272,-0.012360
0.001750,0.000791,0.002441,-0.019073
0.001800,0.000930,-0.000610,-0.010223
0.001850,0.000644,0.007935,-0.008545
0.001900,0.000323,0.004883,-0.037689
0.001950,0.000271,0.002441,-0.030365
0.002000,0.000422,0.000610,0.005188
0.002050,-0.000300,-0.001831,0.002747
0.002100,-0.001815,-0.006104,-0.023346
0.002150,-0.002285,-0.001831,-0.013428
0.002200,-0.001560,0.002441,-0.002289
0.002250,-0.000835,0.000000,-0.008240
0.002300,-0.000115,-0.010986,0.004425
0.002350,0.000636,-0.006714,-0.027466
0.002400,0.001072,0.003662,0.000916
0.002450,0.001314,-0.000610,0.003967
0.002500,0.001028,0.007935,-0.027618
0.002550,0.000144,0.000610,-0.018921
0.002600,-0.000591,0.003052,-0.007782
0.002650,-0.000804,0.010986,-0.028076
0.002700,-0.000861,0.004272,-0.013733
0.002750,-0.000639,-0.006104,-0.005798
0.002800,-0.000528,-0.003662,-0.014496
0.002850,-0.000919,0.004272,-0.010071
0.002900,-0.000515,0.008545,-0.000610
0.002950,0.000462,0.003052,-0.013275
0.003000,0.000650,-0.001221,-0.011902
0.003050,0.000171,0.005493,-0.009918
0.003100,-0.000150,0.003662,-0.017090
0.003150,-0.000294,-0.006714,-0.012970
0.003200,-0.001029,0.009766,-0.012817
0.003250,-0.001711,0.007324,-0.012360
0.003300,-0.001557,0.004272,-0.019379
0.003350,-0.001103,0.000610,-0.013123
0.003400,-0.000841,-0.009155,0.004272
0.003450,-0.000345,-0.012207,0.007172
0.003500,0.000018,-0.004883,-0.010223
0.003550,0.000181,-0.000610,-0.012512
0.003600,0.001096,0.001831,-0.028839
0.003650,0.001496,-0.001221,-0.010529
0.003700,0.000831,0.005493,-0.016327
0.003750,0.000215,0.000000,-0.026703
0.003800,0.000353,-0.002441,-0.036316
0.003850,0.000792,-0.003052,-0.007019
0.003900,0.000308,0.004272,-0.007477
0.003950,-0.000553,0.011597,-0.010986
0.004000,-0.000572,-0.000610,0.001373
0.004050,-0.000014,0.007935,-0.015106
0.004100,0.000113,0.014038,-0.015411
0.004150,-0.000032,0.003662,-0.023956
0.004200,0.000308,0.013428,-0.023193
0.004250,0.000747,0.000610,-0.014801
0.004300,0.000583,0.002441,-0.003510
0.004350,0.000111,0.007324,-0.014954
0.004400,-0.000251,-0.000610,-0.019379
0.004450,-0.000889,0.010986,-0.015564
0.004500,-0.001091,0.001221,-0.012360
0.004550,-0.000529,0.001831,-0.010223
0.004600,-0.000445,0.012207,-0.013885
0.004650,-0.000393,0.011597,-0.011139
0.004700,0.000022,-0.000610,-0.019531
0.004750,-0.000027,-0.005493,-0.014496
0.004800,-0.000206,0.020752,-0.019073
0.004850,0.000267,0.005493,-0.008087
0.004900,0.000673,0.015259,-0.018311
0.004950,0.000707,-0.001831,-0.018616
0.005000,0.000752,0.004272,-0.018005
0.005050,0.000286,0.009766,-0.009460
0.005100,0.000024,0.010986,-0.011749
0.005150,0.000790,0.004883,-0.006256
0.005200,0.001569,-0.004883,0.016632
0.005250,0.001827,-0.013428,-0.022736
0.005300,0.002549,0.003052,-0.019226
0.005350,0.003160,-0.003662,0.000916
0.005400,0.002264,-0.007935,-0.018311
0.005450,0.000763,0.001831,-0.004272
0.005500,0.000070,0.002441,-0.032501
0.005550,-0.000294,-0.000610,0.003204
0.005600,-0.001565,-0.001831,-0.002441
0.005650,-0.004082,0.003662,-0.029907
0.005700,-0.007769,-0.014038,-0.002899
0.005750,-0.012563,-0.003662,-0.002594
0.005800,-0.018771,-0.003052,-0.042267
0.005850,-0.026378,-0.009155,-0.026855
0.005900,-0.034329,-0.003662,-0.033875
0.005950,-0.041821,-0.010986,-0.030518
0.006000,-0.049419,-0.014648,-0.047150
0.006050,-0.056121,-0.015259,-0.011444
0.006100,-0.059570,-0.042725,-0.018616
0.006150,-0.059103,-0.040283,0.013733
0.006200,-0.053425,-0.039062,0.012360
0.006250,-0.040090,-0.056763,0.020142
0.006300,-0.017086,-0.055542,0.033112
0.006350,0.016478,-0.056152,0.072784
0.006400,0.061408,-0.047607,0.120392
0.006450,0.118314,-0.050659,0.107422
0.006500,0.186672,-0.027466,0.148468
0.006550,0.265372,0.004883,0.158844
0.006600,0.352501,0.037842,0.151367
0.006650,0.445992,0.081787,0.183868
0.006700,0.543222,0.134888,0.174561
0.006750,0.639821,0.216064,0.163574
0.006800,0.730910,0.272217,0.135345
0.006850,0.812850,0.371094,0.064392
0.006900,0.881973,0.455322,0.053864
0.006950,0.934373,0.540771,-0.057526
0.007000,0.967487,0.635376,-0.133514
0.007050,0.980442,0.730591,-0.194397
0.007100,0.973055,0.806274,-0.209656
0.007150,0.945369,0.856323,-0.270844
0.007200,0.898516,0.906982,-0.321808
0.007250,0.834948,0.938721,-0.291901
0.007300,0.757638,0.938110,-0.290985
0.007350,0.669933,0.928345,-0.279083
0.007400,0.576205,0.904541,-0.276642
0.007450,0.480657,0.862427,-0.241547
0.007500,0.386578,0.794678,-0.157623
0.007550,0.297110,0.729980,-0.131836
0.007600,0.215283,0.654907,-0.079956
0.007650,0.143321,0.554810,-0.009155
0.007700,0.082742,0.457153,0.071106
0.007750,0.033483,0.360718,0.100098
0.007800,-0.005109,0.272217,0.114594
0.007850,-0.033224,0.205688,0.119019
0.007900,-0.051520,0.137329,0.142822
0.007950,-0.061128,0.088501,0.128632
0.008000,-0.064639,0.045166,0.146790
0.008050,-0.063569,-0.007324,0.126038
0.008100,-0.058334,-0.021973,0.104218
0.008150,-0.051024,-0.028687,0.062714
0.008200,-0.042739,-0.052490,0.064697
0.008250,-0.034214,-0.065308,0.049286
0.008300,-0.027039,-0.048828,0.030823
0.008350,-0.021054,-0.040283,0.022125
0.008400,-0.015581,-0.027466,-0.029602
0.008450,-0.010478,-0.026245,-0.033875
0.008500,-0.006412,-0.026245,-0.048370
0.008550,-0.004744,-0.025635,-0.042114
0.008600,-0.004732,-0.015869,-0.050507
0.008650,-0.004135,-0.009155,-0.031891
0.008700,-0.002877,-0.003662,-0.029449
0.008750,-0.001626,0.002441,-0.023041
0.008800,-0.000431,0.006104,-0.032043
0.008850,-0.000366,0.004883,-0.014954
0.008900,-0.000591,0.000610,-0.023804
0.008950,-0.000286,0.003662,-0.023804
0.009000,-0.000542,0.006714,-0.007019
0.009050,-0.001220,0.004883,-0.014191
0.009100,-0.002088,-0.007324,-0.022125
0.009150,-0.002791,0.011597,-0.011597
0.009200,-0.003192,-0.007935,-0.007477
0.009250,-0.003605,0.007324,-0.016632
0.009300,-0.003480,0.003052,0.006409
0.009350,-0.002911,0.011597,-0.013885
0.009400,-0.002263,0.000610,-0.006256
0.009450,-0.001541,-0.002441,0.001984
0.009500,-0.001319,0.002441,-0.014496
0.009550,-0.001763,0.000000,-0.027924
0.009600,-0.001914,-0.001221,-0.003510
0.009650,-0.001567,0.009155,-0.005341
0.009700,-0.002008,0.007935,-0.022888
0.009750,-0.002620,-0.001221,-0.025940
0.009800,-0.001971,0.011597,-0.005951
0.009850,-0.001431,0.000610,-0.003815
0.009900,-0.001442,0.004883,-0.008545
0.009950,-0.001507,0.007935,-0.007629
0.010000,-0.002105,-0.007324,-0.012665
0.010050,-0.001767,-0.003052,-0.010223
0.010100,-0.000775,0.003052,-0.019531
0.010150,-0.000693,-0.001831,-0.012817
0.010200,-0.000723,0.010986,-0.028992
0.010250,-0.000938,-0.004883,-0.016174
0.010300,-0.001743,0.001221,-0.020142
0.010350,-0.001878,0.009155,-0.014038
0.010400,-0.000987,0.009155,-0.021515
0.010450,-0.000670,-0.001221,-0.021210
0.010500,-0.001290,-0.009766,-0.005646
0.010550,-0.001304,0.015869,-0.008087
0.010600,-0.000537,0.006714,-0.002289
0.010650,-0.000627,0.009155,-0.006866
0.010700,-0.000982,-0.007324,-0.004425
0.010750,-0.000797,0.014648,-0.028229
0.010800,-0.001160,0.004272,-0.017090
0.010850,-0.001335,0.008545,-0.007782
0.010900,-0.000541,0.000000,0.003204
0.010950,0.000037,-0.005493,-0.005035
0.011000,-0.000348,0.001831,-0.009766
0.011050,-0.000320,-0.004272,-0.003357
0.011100,0.000477,0.004272,-0.018463
0.011150,0.000594,-0.004272,-0.021057
0.011200,-0.000100,-0.006714,-0.007172
0.011250,-0.001328,0.006714,-0.025024
0.011300,-0.001731,0.005493,-0.020905
0.011350,-0.000990,-0.006104,-0.021667
0.011400,-0.001075,-0.004272,-0.036316
0.011450,-0.001413,-0.006104,-0.018005
0.011500,-0.001211,0.007324,-0.019989
0.011550,-0.000956,0.005493,-0.001373
0.011600,-0.000595,0.014648,0.010834
0.011650,-0.000449,-0.004272,0.005798
0.011700,-0.000637,-0.001831,-0.009003
0.011750,-0.000959,-0.000610,-0.010223
0.011800,-0.000860,-0.010376,-0.012665
0.011850,-0.000643,0.002441,-0.037079
0.011900,-0.000935,0.000610,-0.019989
0.011950,-0.001639,0.013428,-0.006714
0.012000,-0.002264,0.001221,-0.019379
0.012050,-0.001591,-0.000610,-0.004883
0.012100,-0.000399,-0.009155,-0.014496
0.012150,-0.000225,0.015869,-0.001984
0.012200,-0.000523,0.005493,-0.016937
0.012250,-0.000874,0.000000,-0.006104
0.012300,-0.001049,-0.000610,-0.013580
0.012350,-0.000995,-0.008545,-0.020447
0.012400,-0.001064,0.002441,-0.027466
0.012450,-0.000830,0.000610,-0.013885
0.012500,-0.000416,0.004883,0.005035
0.012550,-0.000536,0.012817,0.001984
0.012600,-0.000995,0.014648,-0.019226
0.012650,-0.000984,0.000610,-0.010376
0.012700,-0.000314,0.004883,-0.006561
0.012750,0.000266,0.013428,-0.022278
0.012800,0.000447,0.007324,-0.018311
0.012850,0.000472,-0.009155,-0.000153
0.012900,0.000141,0.005493,-0.015259
0.012950,-0.000667,0.015869,-0.029144
0.013000,-0.001160,-0.001831,0.007477
0.013050,-0.000971,-0.009155,-0.005951
0.013100,-0.000434,0.012207,-0.021057
0.013150,-0.000162,-0.008545,-0.030060
0.013200,-0.000564,0.003052,-0.016785
0.013250,-0.000621,-0.005493,-0.012512
0.013300,-0.000263,-0.009155,-0.008850
0.013350,0.000361,-0.002441,-0.001678
0.013400,0.001052,0.001831,-0.011597
0.013450,0.000865,-0.003662,-0.008087
0.013500,0.000341,0.006714,-0.035400
0.013550,-0.000029,0.012817,-0.020752
0.013600,-0.000465,0.000610,-0.004272
0.013650,-0.000572,0.004883,-0.036011
0.013700,-0.000462,0.007935,-0.011139
0.013750,-0.000518,0.003052,-0.018463
0.013800,-0.000229,0.001221,0.016022
0.013850,-0.000098,0.000610,-0.016785
0.013900,-0.000342,0.008545,-0.016022
0.013950,-0.000364,0.006714,0.019073
0.014000,-0.000898,0.007324,-0.021362
0.014050,-0.001734,0.001221,-0.005646
0.014100,-0.001532,0.001221,-0.026550
0.014150,-0.000532,0.004883,-0.014343
0.014200,0.000431,0.005493,-0.021210
0.014250,0.000805,-0.013428,-0.004883
0.014300,0.000381,-0.010376,-0.009308
0.014350,0.000325,0.010986,-0.006561
0.014400,0.001779,-0.001221,-0.003662
0.014450,0.003536,0.021362,-0.029907
0.014500,0.004596,-0.006714,-0.002289
0.014550,0.004705,0.017700,-0.003662
0.014600,0.002849,0.004272,0.010223
