t [s],u [deg],y [deg],i [A]
0.000000,-0.001893,0.004272,-0.015259
0.000050,-0.002181,-0.001831,-0.035858
0.000100,-0.001684,-0.007324,-0.029144
0.000150,-0.001378,-0.008545,-0.003357
0.000200,-0.000394,-0.001831,-0.001373
0.000250,0.000856,-0.007324,-0.014191
0.000300,0.000967,0.002441,-0.013733
0.000350,0.000650,-0.006714,0.009460
0.000400,0.000920,0.012207,-0.010681
0.000450,0.001167,-0.000610,-0.003357
0.000500,0.000928,-0.005493,-0.000610
0.000550,0.000980,0.005493,-0.029907
0.000600,0.001193,0.009766,-0.019684
0.000650,0.001086,0.007935,-0.016327
0.000700,0.000987,-0.004272,0.010681
0.000750,0.000845,-0.002441,-0.016174
0.000800,0.000111,0.010376,-0.005188
0.000850,-0.000671,-0.001221,-0.012817
0.000900,-0.000837,-0.005493,-0.016022
0.000950,-0.000906,-0.004883,-0.016327
0.001000,-0.000568,0.004272,-0.026703
0.001050,0.000253,-0.000610,-0.002441
0.001100,0.000490,0.000000,-0.005798
0.001150,0.000096,-0.005493,0.001068
0.001200,0.000384,-0.001221,-0.011139
0.001250,0.000791,-0.004883,0.000305
0.001300,-0.000035,0.007324,-0.019531
0.001350,-0.000525,0.006104,0.003204
0.001400,-0.000123,0.004272,-0.000458
0.001450,-0.000448,0.001221,-0.017090
0.001500,-0.000538,0.000000,-0.015717
0.001550,0.000632,0.008545,-0.012360
0.001600,0.001414,-0.003662,-0.006104
0.001650,0.001160,0.000000,-0.010986
0.001700,0.001001,0.001831,-0.005798
0.001750,0.001019,0.009766,-0.023499
0.001800,0.000048,0.007935,0.001984
0.001850,-0.001605,0.001221,-0.020294
0.001900,-0.002433,0.007935,-0.035400
0.001950,-0.002042,-0.007935,-0.025940
0.002000,-0.001460,-0.001831,0.009308
0.002050,-0.001324,0.005493,-0.007935
0.002100,-0.001219,0.000610,-0.010681
0.002150,-0.001168,0.001831,0.008850
0.002200,-0.000920,0.000610,0.005035
0.002250,0.000101,0.018921,-0.012817
0.002300,0.000970,-0.003662,-0.025330
0.002350,0.001394,-0.002441,-0.002594
0.002400,0.001900,-0.010376,-0.005341
0.002450,0.001717,0.005493,-0.011292
0.002500,0.000743,-0.000610,-0.017853
0.002550,-0.000249,0.009766,-0.021820
0.002600,-0.000619,0.014038,-0.013275
0.002650,0.000008,0.000610,-0.019684
0.002700,0.000475,0.009155,-0.012665
0.002750,0.000489,0.010986,0.005798
0.002800,0.000362,-0.007324,0.010376
0.002850,-0.000501,-0.001221,-0.026855
0.002900,-0.001317,0.004883,-0.022583
0.002950,-0.001102,0.001831,-0.010986
0.003000,-0.000107,0.009766,-0.023651
0.003050,0.000549,0.004272,-0.008392
0.003100,0.000396,0.009155,-0.012970
0.003150,0.000483,0.000610,-0.015411
0.003200,0.001080,0.010376,-0.021667
0.003250,0.000742,0.005493,-0.015869
0.003300,-0.000176,0.007324,-0.012665
0.003350,0.000161,0.004272,-0.003357
0.003400,0.001083,-0.001221,-0.016479
0.003450,0.001337,0.001831,-0.013428
0.003500,0.001070,0.009155,-0.007324
0.003550,0.000799,0.002441,-0.007172
0.003600,0.001022,-0.009155,-0.011444
0.003650,0.001422,0.005493,-0.011292
0.003700,0.001944,0.010376,-0.023499
0.003750,0.002135,-0.010376,-0.000916
0.003800,0.001647,-0.009766,-0.018921
0.003850,0.001162,0.004883,0.000916
0.003900,0.000416,-0.000610,0.002136
0.003950,-0.000323,0.000610,-0.021973
0.004000,-0.000504,0.011597,-0.025787
0.004050,-0.000009,0.001831,-0.009308
0.004100,0.000724,-0.005493,0.008240
0.004150,0.000845,0.003052,-0.015259
0.004200,0.000528,-0.000610,-0.009613
0.004250,0.000468,-0.000610,-0.011139
0.004300,0.000745,-0.000610,0.010986
0.004350,0.000530,0.001831,-0.021973
0.004400,-0.000262,0.001831,-0.000305
0.004450,-0.000487,0.003052,-0.006866
0.004500,-0.000126,-0.003662,-0.014191
0.004550,0.000206,0.003662,-0.021515
0.004600,0.001060,0.009155,-0.011597
0.004650,0.002288,0.003052,-0.006866
0.004700,0.002579,0.006104,-0.012360
0.004750,0.001823,-0.004883,-0.021515
0.004800,0.001235,-0.004883,-0.021973
0.004850,0.001720,0.003052,-0.014191
0.004900,0.001988,0.001831,-0.017242
0.004950,0.000829,0.007935,-0.025330
0.005000,-0.000503,0.000610,-0.021515
0.005050,-0.000924,0.004883,-0.043335
0.005100,-0.000786,0.001831,-0.027466
0.005150,-0.000875,0.006714,-0.012970
0.005200,-0.001054,0.006104,-0.010681
0.005250,-0.000704,0.000000,-0.016479
0.005300,-0.000093,0.009155,-0.006561
0.005350,0.000684,0.005493,-0.000458
0.005400,0.001371,-0.004272,-0.023499
0.005450,0.001267,0.017090,-0.009308
0.005500,0.001073,-0.001221,-0.009460
0.005550,0.001106,0.003662,0.000000
0.005600,0.001216,-0.005493,0.003510
0.005650,0.002124,0.006104,-0.039520
0.005700,0.004173,0.007935,-0.029755
0.005750,0.006564,-0.009766,0.005493
0.005800,0.009105,0.009155,0.017700
0.005850,0.012601,0.006714,0.002136
0.005900,0.016077,0.005493,0.012360
0.005950,0.016951,0.017700,0.001831
0.006000,0.013931,0.015259,0.001068
0.006050,0.007085,0.027466,-0.026093
0.006100,-0.004079,0.014648,-0.051422
0.006150,-0.019009,0.006104,-0.021973
0.006200,-0.036865,0.015259,-0.047913
0.006250,-0.056909,0.006104,-0.063324
0.006300,-0.076149,0.007324,-0.067444
0.006350,-0.090227,-0.003662,-0.059662
0.006400,-0.094784,-0.032349,-0.022583
0.006450,-0.085708,-0.042114,-0.015259
0.006500,-0.059547,-0.043945,0.054474
0.006550,-0.012315,-0.080566,0.093689
0.006600,0.059243,-0.083008,0.179901
0.006650,0.153772,-0.078125,0.241394
0.006700,0.266683,-0.059204,0.298920
0.006750,0.392227,-0.018311,0.342560
0.006800,0.523158,0.022583,0.315704
0.006850,0.650187,0.111084,0.279541
0.006900,0.764108,0.190430,0.198364
0.006950,0.856449,0.302734,0.110321
0.007000,0.918326,0.401611,0.021210
0.007050,0.943977,0.524902,-0.090179
0.007100,0.932756,0.632324,-0.243378
0.007150,0.885818,0.727539,-0.402527
0.007200,0.806448,0.828857,-0.503387
0.007250,0.701444,0.878296,-0.536041
0.007300,0.579269,0.888672,-0.584564
0.007350,0.449556,0.872803,-0.527802
0.007400,0.322368,0.828857,-0.410461
0.007450,0.205985,0.750122,-0.315094
0.007500,0.106340,0.657349,-0.183716
0.007550,0.027273,0.528564,-0.060272
0.007600,-0.030057,0.424194,0.088348
0.007650,-0.066563,0.297852,0.194855
0.007700,-0.084918,0.212402,0.237732
0.007750,-0.088666,0.098267,0.293427
0.007800,-0.081706,0.039673,0.294037
0.007850,-0.068404,-0.031128,0.260620
0.007900,-0.052473,-0.063477,0.230408
0.007950,-0.036546,-0.068970,0.158539
0.008000,-0.022185,-0.083618,0.110321
0.008050,-0.010540,-0.063477,0.049133
0.008100,-0.002531,-0.059814,0.010529
0.008150,0.002467,-0.034180,-0.044708
0.008200,0.005095,-0.025635,-0.056763
0.008250,0.005108,-0.020142,-0.074005
0.008300,0.003928,0.004272,-0.059052
0.008350,0.003191,0.003662,-0.049286
0.008400,0.001852,0.010376,-0.030212
0.008450,-0.000284,-0.006104,-0.016937
0.008500,-0.001405,0.000000,-0.024109
0.008550,-0.001734,0.028076,-0.009155
0.008600,-0.002039,0.015259,-0.008698
0.008650,-0.001768,0.008545,-0.000458
0.008700,-0.001323,-0.002441,0.003052
0.008750,-0.001237,-0.003662,0.007477
0.008800,-0.000890,-0.000610,0.001678
0.008850,-0.000342,0.001221,0.008698
0.008900,-0.000591,-0.001831,0.007629
0.008950,-0.001229,-0.003052,-0.000153
0.009000,-0.001228,-0.006714,-0.015564
0.009050,-0.001064,0.001831,-0.031128
0.009100,-0.001594,0.004272,-0.026093
0.009150,-0.002306,0.006714,-0.014648
0.009200,-0.001971,-0.002441,-0.005493
0.009250,-0.001336,0.004883,0.001221
0.009300,-0.001667,0.005493,-0.011749
0.009350,-0.002430,0.000000,-0.008392
0.009400,-0.002878,0.006104,-0.024261
0.009450,-0.002988,0.001831,-0.014496
0.009500,-0.002718,0.000000,-0.000458
0.009550,-0.001951,-0.001831,-0.013123
0.009600,-0.000748,-0.001831,-0.004883
0.009650,0.000280,0.001221,-0.016632
0.009700,0.000080,-0.007935,-0.007629
0.009750,-0.000995,0.001221,0.003662
0.009800,-0.001687,0.009766,-0.009308
0.009850,-0.001966,0.004272,-0.023804
0.009900,-0.001622,-0.001221,-0.014191
0.009950,-0.000983,0.003662,-0.007019
0.010000,-0.000861,0.006104,-0.005493
0.010050,-0.000631,-0.007324,-0.021667
0.010100,-0.000006,0.009155,0.006561
0.010150,0.000153,-0.006104,-0.003204
0.010200,-0.000502,-0.006714,-0.010986
0.010250,-0.001073,0.009155,-0.020752
0.010300,-0.001130,0.008545,-0.015411
0.010350,-0.000753,0.011597,-0.020142
0.010400,-0.000532,-0.000610,-0.016174
0.010450,-0.000695,0.002441,-0.015106
0.010500,-0.000999,0.012207,-0.011139
0.010550,-0.001418,0.007935,0.009613
0.010600,-0.001541,0.003052,0.011444
0.010650,-0.001315,0.002441,-0.000458
0.010700,-0.000867,-0.004272,-0.000916
0.010750,-0.000637,0.004272,0.004425
0.010800,-0.000257,0.005493,0.011749
0.010850,0.000411,0.010376,0.007324
0.010900,0.000546,-0.001221,-0.005188
0.010950,0.000430,0.000610,-0.019073
0.011000,0.000037,-0.001831,-0.004730
0.011050,-0.000670,0.003662,-0.009766
0.011100,-0.001545,0.015869,-0.029297
0.011150,-0.001870,0.012207,-0.000610
0.011200,-0.001356,-0.007324,-0.024567
0.011250,-0.001227,0.008545,0.008850
0.011300,-0.001032,0.001221,-0.027466
0.011350,-0.001081,0.003662,0.002136
0.011400,-0.001801,0.007324,-0.006561
0.011450,-0.001712,-0.007935,-0.008850
0.011500,-0.001497,0.006714,-0.020142
0.011550,-0.001734,-0.008545,0.000763
0.011600,-0.001923,0.009155,-0.005646
0.011650,-0.002244,-0.006104,-0.031128
0.011700,-0.001541,-0.004272,-0.024261
0.011750,0.000075,-0.010376,0.001221
0.011800,0.000743,0.002441,0.002289
0.011850,0.000592,0.007324,-0.028839
0.011900,0.001023,-0.015259,-0.009766
0.011950,0.001635,-0.001221,-0.023346
0.012000,0.001183,0.007324,-0.024414
0.012050,0.000369,-0.000610,-0.016479
0.012100,-0.000188,0.006714,0.002441
0.012150,-0.000669,-0.004883,-0.030212
0.012200,-0.001123,0.002441,-0.015106
0.012250,-0.001771,0.000000,-0.023346
0.012300,-0.002043,0.005493,-0.018921
0.012350,-0.001691,-0.002441,-0.008240
0.012400,-0.001592,0.000000,-0.010223
0.012450,-0.001892,0.002441,0.006714
0.012500,-0.001710,-0.001221,0.017242
0.012550,-0.001398,0.010376,-0.002594
0.012600,-0.001130,0.002441,-0.000153
0.012650,-0.000533,-0.000610,0.004730
0.012700,-0.000402,0.002441,0.005798
0.012750,-0.000266,0.001221,0.023346
0.012800,-0.000041,0.000610,-0.018158
0.012850,-0.000434,0.000000,0.000916
0.012900,-0.000257,-0.004883,0.010223
0.012950,0.000533,0.004272,-0.006561
0.013000,0.000396,0.000000,-0.041656
0.013050,-0.000529,0.014038,-0.004578
0.013100,-0.001363,-0.003052,-0.007172
0.013150,-0.002061,0.010376,-0.009003
0.013200,-0.002149,-0.004883,-0.016785
0.013250,-0.001507,-0.001221,-0.003052
0.013300,-0.001197,0.001221,-0.002136
0.013350,-0.001271,0.014648,-0.015411
0.013400,-0.001429,0.001221,-0.044403
0.013450,-0.001423,-0.004272,-0.005493
0.013500,-0.001177,-0.000610,-0.009308
0.013550,-0.001843,0.003662,-0.019684
0.013600,-0.002828,0.015869,-0.022278
0.013650,-0.002345,-0.008545,0.005188
0.013700,-0.001128,0.003662,-0.006866
0.013750,-0.000217,0.011597,-0.017242
0.013800,-0.000086,0.008545,-0.015259
0.013850,-0.000571,-0.004883,-0.007782
0.013900,-0.000795,-0.000610,0.005035
0.013950,-0.000901,-0.007324,-0.030060
0.014000,-0.000421,0.017700,-0.022278
0.014050,-0.000283,0.003052,-0.034637
0.014100,-0.001125,0.004272,0.019989
0.014150,-0.000808,-0.010376,-0.038300
0.014200,0.000409,0.003662,-0.014191
0.014250,0.000902,0.003052,-0.011292
0.014300,0.000953,0.001831,-0.025024
0.014350,0.001117,-0.006714,-0.005188
0.014400,0.001385,0.006714,-0.037231
0.014450,0.001942,-0.007324,0.028992
0.014500,0.002446,-0.004883,0.007172
0.014550,0.001851,0.004883,-0.003967
0.014600,0.000688,0.005493,0.001221
