t [s],u [deg],y [deg],i [A]
0.000000,-0.000183,0.007324,-0.011597
0.000050,0.000025,-0.004272,0.022125
0.000100,0.000855,-0.000610,0.001984
0.000150,0.001719,0.001221,-0.023193
0.000200,0.002251,-0.004272,-0.022888
0.000250,0.002005,0.000610,-0.022888
0.000300,0.001358,0.000000,0.005951
0.000350,0.000866,-0.004883,-0.019379
0.000400,0.000060,0.006714,0.002594
0.000450,-0.001114,-0.006104,-0.026245
0.000500,-0.001159,-0.005493,-0.005798
0.000550,-0.000382,0.006104,-0.007782
0.000600,-0.000161,0.005493,-0.009003
0.000650,-0.000060,0.000610,-0.024414
0.000700,0.000222,-0.001831,-0.013275
0.000750,0.000200,0.004272,-0.002747
0.000800,0.000188,0.005493,-0.009766
0.000850,0.000360,0.007324,-0.000916
0.000900,0.000411,-0.003052,-0.017853
0.000950,0.000779,0.014038,-0.006256
0.001000,0.001493,0.002441,-0.007324
0.001050,0.002068,-0.006714,-0.016327
0.001100,0.001715,-0.007324,-0.001221
0.001150,0.000412,-0.003052,-0.000610
0.001200,-0.000328,0.004272,-0.033875
0.001250,-0.000292,-0.007935,-0.018311
0.001300,-0.000578,-0.017700,0.005188
0.001350,-0.000865,-0.002441,0.010529
0.001400,-0.000811,0.012817,-0.014191
0.001450,-0.000517,-0.005493,0.005341
0.001500,0.000166,-0.001831,-0.020294
0.001550,0.000725,-0.004883,-0.005798
0.001600,0.001142,0.017090,0.000000
0.001650,0.001509,0.016479,-0.011597
0.001700,0.001189,-0.002441,0.016174
0.001750,0.000743,-0.001831,-0.007324
0.001800,0.000437,-0.001831,0.005035
0.001850,-0.000321,-0.004883,-0.009460
0.001900,-0.000775,-0.005493,-0.006714
0.001950,-0.000540,0.014648,-0.005341
0.002000,-0.000352,0.007324,-0.004120
0.002050,-0.000045,-0.011597,0.001526
0.002100,0.000347,0.001831,-0.005951
0.002150,-0.000084,-0.003052,0.000610
0.002200,-0.000706,0.004272,-0.004730
0.002250,-0.000412,0.006104,-0.004730
0.002300,-0.000109,0.009155,-0.006409
0.002350,-0.000563,-0.000610,0.000153
0.002400,-0.000630,0.000610,0.000916
0.002450,-0.000130,0.007935,-0.005951
0.002500,0.000235,-0.007935,-0.012054
0.002550,0.000306,0.003052,-0.008545
0.002600,0.000225,-0.017090,0.011902
0.002650,0.000260,0.006104,-0.011292
0.002700,0.000054,0.005493,-0.008240
0.002750,-0.000472,-0.008545,-0.032501
0.002800,-0.001001,0.004272,0.000000
0.002850,-0.001100,0.001831,-0.017700
0.002900,-0.000700,0.004272,-0.022430
0.002950,-0.000409,-0.015259,-0.001984
0.003000,0.000040,0.009766,-0.000916
0.003050,0.000920,-0.002441,0.005188
0.003100,0.001545,0.005493,-0.020142
0.003150,0.001484,0.001831,-0.012665
0.003200,0.001440,0.000000,0.000458
0.003250,0.001545,-0.002441,-0.018921
0.003300,0.001569,0.002441,-0.019836
0.003350,0.001665,0.007324,-0.012665
0.003400,0.001139,-0.007935,-0.018158
0.003450,0.000676,0.014648,-0.010071
0.003500,0.000785,0.000000,-0.004272
0.003550,0.000618,0.006104,-0.000916
0.003600,0.000259,0.007324,-0.027313
0.003650,0.000241,0.001221,-0.005951
0.003700,0.000293,-0.003052,-0.018768
0.003750,-0.000269,0.004883,0.000610
0.003800,-0.000871,0.002441,0.003662
0.003850,-0.001056,0.001221,-0.019989
0.003900,-0.001216,-0.001831,-0.023041
0.003950,-0.000925,-0.007935,0.004883
0.004000,0.000013,0.006714,-0.019684
0.004050,0.000334,0.014038,0.011292
0.004100,-0.000139,0.006104,0.000153
0.004150,-0.000131,0.005493,-0.013885
0.004200,0.000079,0.004883,-0.009308
0.004250,0.000162,-0.001221,-0.001831
0.004300,0.000704,0.013428,-0.009003
0.004350,0.000958,0.010986,-0.006561
0.004400,0.000518,-0.007935,0.000000
0.004450,0.000399,-0.003662,-0.002747
0.004500,0.000512,0.012817,-0.001068
0.004550,0.000257,0.001221,-0.010071
0.004600,-0.000181,-0.006714,-0.016785
0.004650,-0.000570,-0.014038,0.007629
0.004700,-0.000462,-0.000610,-0.014648
0.004750,-0.000059,0.006714,-0.016785
0.004800,0.000451,0.003052,0.000458
0.004850,0.000897,0.000610,-0.014954
0.004900,0.000593,0.004883,-0.010681
0.004950,0.000150,-0.003052,0.015717
0.005000,0.000290,0.004272,-0.022736
0.005050,0.000454,-0.003052,-0.017242
0.005100,0.000543,-0.006714,0.010986
0.005150,0.001167,0.004883,-0.016632
0.005200,0.001672,0.006104,-0.003204
0.005250,0.001537,0.004272,0.017090
0.005300,0.001140,0.010376,-0.018311
0.005350,0.000753,0.003052,-0.027466
0.005400,0.000613,-0.003052,-0.009460
0.005450,0.000171,-0.005493,-0.005035
0.005500,-0.000781,-0.005493,0.000305
0.005550,-0.001415,-0.007324,-0.014801
0.005600,-0.001203,0.000610,-0.035400
0.005650,-0.000418,-0.004272,-0.020905
0.005700,0.000400,-0.001831,-0.005493
0.005750,0.001449,-0.021362,0.022736
0.005800,0.003194,-0.000610,0.001526
0.005850,0.005488,0.006714,-0.039673
0.005900,0.007715,0.005493,-0.023041
0.005950,0.009402,0.002441,0.017700
0.006000,0.010184,-0.003052,-0.003662
0.006050,0.008885,-0.004272,-0.021515
0.006100,0.004412,0.005493,-0.008545
0.006150,-0.002782,0.000000,-0.039215
0.006200,-0.012373,0.016479,-0.034027
0.006250,-0.024868,0.018311,-0.060120
0.006300,-0.039272,0.000000,-0.054779
0.006350,-0.053423,0.008545,-0.057373
0.006400,-0.065187,0.001221,-0.061798
0.006450,-0.071597,-0.007324,-0.032501
0.006500,-0.068601,-0.030518,-0.015564
0.006550,-0.052504,-0.034790,0.025787
0.006600,-0.021396,-0.059814,0.074615
0.006650,0.026545,-0.052490,0.088348
0.006700,0.092836,-0.059814,0.124817
0.006750,0.176549,-0.056763,0.217590
0.006800,0.274808,-0.020142,0.225677
0.006850,0.382627,0.004883,0.295715
0.006900,0.493905,0.061646,0.262451
0.006950,0.601564,0.125122,0.235138
0.007000,0.698117,0.204468,0.163422
0.007050,0.776013,0.288696,0.083313
0.007100,0.829442,0.381470,-0.007935
0.007150,0.855546,0.499268,-0.116425
0.007200,0.851683,0.579834,-0.222321
0.007250,0.817530,0.684814,-0.299530
0.007300,0.756221,0.737305,-0.366974
0.007350,0.672531,0.778809,-0.451660
0.007400,0.572795,0.814819,-0.462189
0.007450,0.465002,0.797119,-0.442963
0.007500,0.355685,0.775757,-0.346985
0.007550,0.250510,0.700073,-0.282745
0.007600,0.155883,0.629272,-0.218658
0.007650,0.076513,0.537109,-0.090942
0.007700,0.015157,0.430908,0.051575
0.007750,-0.028521,0.333862,0.101013
0.007800,-0.056611,0.241089,0.153198
0.007850,-0.070473,0.139160,0.228424
0.007900,-0.072062,0.064087,0.239716
0.007950,-0.064843,0.015869,0.228424
0.008000,-0.052913,-0.029297,0.223694
0.008050,-0.039059,-0.045776,0.149841
0.008100,-0.025318,-0.057373,0.129395
0.008150,-0.013390,-0.054932,0.044403
0.008200,-0.003605,-0.046387,0.016174
0.008250,0.003219,-0.032349,0.006866
0.008300,0.006712,-0.028687,-0.033875
0.008350,0.008462,-0.010986,-0.064240
0.008400,0.008985,-0.005493,-0.061035
0.008450,0.007390,-0.001831,-0.067139
0.008500,0.004596,0.016479,-0.045624
0.008550,0.002019,0.013428,-0.066376
0.008600,0.000022,0.005493,-0.031586
0.008650,-0.001347,0.021973,-0.016785
0.008700,-0.002348,0.014648,-0.009918
0.008750,-0.002434,0.010986,-0.012360
0.008800,-0.002020,0.006104,-0.022125
0.008850,-0.002203,0.000610,0.003662
0.008900,-0.001936,0.001831,0.001678
0.008950,-0.001130,0.003662,-0.007935
0.009000,-0.001018,0.010376,-0.005798
0.009050,-0.001326,-0.006714,0.013275
0.009100,-0.001470,0.015259,-0.012360
0.009150,-0.001096,0.006104,-0.024567
0.009200,-0.001021,0.000000,-0.018311
0.009250,-0.001727,-0.005493,-0.006104
0.009300,-0.002151,-0.001221,-0.019684
0.009350,-0.001579,0.013428,-0.017395
0.009400,-0.001068,0.004883,-0.028229
0.009450,-0.001675,0.009155,-0.000916
0.009500,-0.001537,-0.000610,-0.019684
0.009550,0.000026,0.008545,-0.028229
0.009600,0.000890,0.009766,-0.012360
0.009650,0.000681,0.009155,-0.006866
0.009700,0.000256,0.001831,-0.012817
0.009750,-0.000056,0.003662,-0.018005
0.009800,-0.000144,-0.009155,-0.023804
0.009850,-0.000346,-0.001831,-0.024567
0.009900,-0.000317,-0.001831,0.002289
0.009950,0.000173,-0.000610,-0.020142
0.010000,0.000283,0.000000,-0.005035
0.010050,-0.000571,0.004883,-0.022736
0.010100,-0.001281,-0.009155,-0.016327
0.010150,-0.001201,0.004883,-0.008545
0.010200,-0.001266,0.005493,-0.012512
0.010250,-0.000909,-0.004272,-0.016632
0.010300,-0.000062,-0.003662,-0.005188
0.010350,0.000056,0.001221,0.009155
0.010400,-0.000314,0.003662,-0.014038
0.010450,-0.000741,0.001221,-0.015106
0.010500,-0.001144,0.001221,-0.000305
0.010550,-0.001290,-0.003052,-0.014038
0.010600,-0.001156,0.010986,-0.023499
0.010650,-0.001765,-0.006714,-0.006104
0.010700,-0.002583,0.000000,-0.018005
0.010750,-0.002186,0.008545,-0.007782
0.010800,-0.001324,0.003052,-0.024567
0.010850,-0.001015,0.001221,-0.007019
0.010900,-0.000966,-0.000610,0.001984
0.010950,-0.000748,0.003052,-0.015411
0.011000,-0.000991,0.006714,-0.024109
0.011050,-0.001430,0.004272,-0.002289
0.011100,-0.001974,0.001831,-0.003510
0.011150,-0.002255,-0.001831,-0.027161
0.011200,-0.001653,0.000000,-0.010071
0.011250,-0.001343,0.007935,-0.014496
0.011300,-0.001657,0.004272,-0.016937
0.011350,-0.001693,0.011597,-0.006561
0.011400,-0.001063,0.012207,-0.014191
0.011450,0.000409,0.004272,-0.021667
0.011500,0.001628,0.011597,-0.012817
0.011550,0.001782,0.002441,0.025482
0.011600,0.001634,0.004883,0.007172
0.011650,0.001909,0.003052,-0.009918
0.011700,0.002309,-0.004272,-0.018158
0.011750,0.001698,0.014038,-0.027466
0.011800,0.000684,0.000000,0.001984
0.011850,0.000240,0.010986,-0.009460
0.011900,-0.000006,0.010986,-0.005493
0.011950,-0.000371,0.017090,-0.012970
0.012000,-0.000381,-0.007324,-0.008240
0.012050,0.000048,0.002441,-0.019379
0.012100,-0.000139,0.007935,-0.018158
0.012150,-0.001306,0.007324,-0.018158
0.012200,-0.002145,0.006714,-0.018311
0.012250,-0.002031,0.017090,-0.003967
0.012300,-0.001645,-0.002441,-0.010376
0.012350,-0.001073,0.002441,0.011597
0.012400,-0.000080,0.007935,-0.012665
0.012450,0.000597,0.010376,0.004120
0.012500,0.000659,0.007935,0.001068
0.012550,0.000943,-0.001221,-0.020142
0.012600,0.000589,-0.009766,-0.012970
0.012650,-0.000621,0.001831,0.003357
0.012700,-0.001080,0.001221,-0.022888
0.012750,-0.001032,0.004272,-0.023041
0.012800,-0.001196,0.010986,-0.030365
0.012850,-0.000989,-0.007935,0.001373
0.012900,-0.000305,0.006104,-0.000458
0.012950,0.000488,-0.000610,-0.003357
0.013000,0.000854,-0.004883,-0.007935
0.013050,0.000332,0.001221,-0.015106
0.013100,-0.000241,0.009155,-0.016022
0.013150,-0.000660,0.001831,-0.018158
0.013200,-0.001565,0.000000,0.010071
0.013250,-0.001873,-0.008545,-0.006409
0.013300,-0.001211,0.003662,-0.012207
0.013350,-0.000798,0.001221,0.005951
0.013400,-0.000437,0.007324,-0.009766
0.013450,0.000096,0.004272,0.017548
0.013500,-0.000006,0.007324,0.001068
0.013550,-0.000435,0.002441,-0.001068
0.013600,-0.000898,-0.003662,-0.029602
0.013650,-0.001306,0.003052,-0.001831
0.013700,-0.001213,0.008545,-0.027924
0.013750,-0.000895,0.009155,-0.028381
0.013800,-0.000519,0.015259,-0.007935
0.013850,-0.000299,0.008545,0.003052
0.013900,-0.000033,-0.001831,0.023499
0.013950,0.000493,0.007324,-0.007629
0.014000,0.000887,0.006714,-0.002441
0.014050,0.000961,0.009766,-0.026398
0.014100,0.000664,-0.004883,-0.007324
0.014150,0.000035,0.009766,-0.017548
0.014200,-0.000339,-0.001831,0.003967
0.014250,-0.000062,0.004272,-0.023499
0.014300,0.000372,0.011597,-0.010376
0.014350,0.001236,0.008545,-0.028076
0.014400,0.002335,0.001831,-0.018463
0.014450,0.002696,0.001221,-0.016022
0.014500,0.002549,-0.004272,-0.011749
0.014550,0.002111,0.008545,0.005798
0.014600,0.001251,0.002441,-0.016937
