t [s],u [deg],y [deg],i [A]
0.000000,-0.000165,0.006104,0.010223
0.000050,-0.000388,0.003662,-0.030670
0.000100,-0.000005,-0.004883,-0.024872
0.000150,0.000772,-0.003052,-0.011292
0.000200,0.001022,0.004272,-0.024719
0.000250,0.001062,0.003662,-0.013123
0.000300,0.000946,-0.003052,-0.001221
0.000350,0.000179,-0.007935,-0.001831
0.000400,-0.000756,0.012207,-0.019836
0.000450,-0.000553,-0.001831,-0.012665
0.000500,0.000299,0.010986,-0.023193
0.000550,0.000310,-0.015259,-0.002594
0.000600,-0.000238,0.011597,-0.000610
0.000650,-0.000653,0.010376,-0.020905
0.000700,-0.000567,-0.002441,-0.008240
0.000750,0.000227,-0.005493,-0.021057
0.000800,0.000763,0.000000,0.006104
0.000850,0.000196,0.001221,-0.023346
0.000900,-0.000047,-0.005493,-0.016022
0.000950,0.000945,0.004272,-0.014191
0.001000,0.001894,0.007324,0.010529
0.001050,0.001786,-0.006104,-0.018921
0.001100,0.001007,-0.001831,-0.011902
0.001150,0.000154,-0.004883,-0.029449
0.001200,-0.000607,-0.014038,-0.004272
0.001250,-0.000919,-0.006104,-0.020294
0.001300,-0.000719,-0.003052,0.001831
0.001350,-0.000423,-0.005493,-0.010529
0.001400,-0.000396,-0.002441,-0.027924
0.001450,-0.000421,-0.004883,-0.027618
0.001500,-0.000144,0.008545,-0.008698
0.001550,0.000458,0.009766,-0.014801
0.001600,0.000957,0.000000,-0.029755
0.001650,0.000348,0.008545,-0.013885
0.001700,-0.000216,-0.007324,-0.019531
0.001750,0.000515,-0.002441,-0.011444
0.001800,0.000837,-0.006104,-0.023651
0.001850,0.000525,0.012207,-0.018616
0.001900,-0.000014,0.004272,0.000458
0.001950,-0.000977,-0.004272,-0.005951
0.002000,-0.001392,-0.012817,-0.007477
0.002050,-0.001125,0.006104,-0.007172
0.002100,-0.000810,-0.000610,-0.012665
0.002150,-0.000764,0.000610,0.001373
0.002200,-0.001156,-0.008545,0.002899
0.002250,-0.001666,0.012207,-0.008850
0.002300,-0.001328,-0.003052,-0.008392
0.002350,-0.000291,0.004272,0.004272
0.002400,-0.000071,0.001831,-0.012360
0.002450,-0.000688,-0.005493,-0.008087
0.002500,-0.000707,0.006714,-0.018005
0.002550,-0.000404,-0.000610,-0.018768
0.002600,-0.000105,-0.010376,0.009003
0.002650,0.000561,0.004272,-0.014343
0.002700,0.001041,0.009766,-0.007172
0.002750,0.001286,-0.007935,-0.002136
0.002800,0.000934,0.013428,-0.023346
0.002850,0.000384,-0.006104,-0.012054
0.002900,0.000625,-0.001221,-0.023499
0.002950,0.000778,-0.010376,-0.007019
0.003000,0.000826,0.001831,-0.012360
0.003050,0.001425,-0.004272,-0.010223
0.003100,0.001720,0.009155,-0.024109
0.003150,0.001221,0.004272,-0.005035
0.003200,0.000788,-0.003662,-0.030212
0.003250,0.001187,0.012207,-0.014496
0.003300,0.001245,0.008545,-0.020905
0.003350,0.000375,-0.006714,-0.011292
0.003400,-0.000090,-0.005493,0.002441
0.003450,-0.000121,-0.000610,-0.033875
0.003500,-0.000425,0.001221,-0.011139
0.003550,-0.000687,0.009766,0.006866
0.003600,-0.000517,0.000610,-0.030975
0.003650,-0.000057,0.004883,-0.012665
0.003700,-0.000045,-0.012207,-0.006104
0.003750,-0.000663,0.001221,-0.001678
0.003800,-0.001130,-0.003052,-0.020752
0.003850,-0.001012,0.001831,-0.039673
0.003900,-0.000539,-0.007324,0.009460
0.003950,-0.000340,0.001221,0.001221
0.004000,-0.000315,0.012817,-0.018158
0.004050,-0.000548,0.000610,0.003662
0.004100,-0.000872,0.012817,0.016479
0.004150,-0.000551,0.007324,0.008392
0.004200,-0.000199,0.007324,-0.026398
0.004250,0.000218,-0.009766,-0.016022
0.004300,0.000770,-0.000610,-0.038605
0.004350,0.000637,-0.009155,-0.003357
0.004400,0.000068,0.017090,-0.010834
0.004450,-0.000164,0.006714,-0.033722
0.004500,-0.000067,-0.007935,-0.032654
0.004550,-0.000038,-0.001831,0.011139
0.004600,-0.000411,0.013428,0.002594
0.004650,-0.000885,-0.006714,-0.013733
0.004700,-0.000355,0.001831,-0.019073
0.004750,0.000270,0.009766,-0.020905
0.004800,0.000322,-0.006714,-0.023193
0.004850,0.000529,0.005493,-0.033264
0.004900,0.000601,0.000610,-0.011292
0.004950,0.000689,0.011597,-0.018616
0.005000,0.000905,-0.007935,-0.042419
0.005050,0.000604,-0.000610,0.000610
0.005100,0.000158,0.001221,-0.012207
0.005150,0.000429,-0.012207,0.003204
0.005200,0.000854,0.011597,-0.033417
0.005250,0.000967,0.013428,-0.022736
0.005300,0.000961,0.001831,0.012207
0.005350,0.000691,-0.007324,-0.016022
0.005400,0.000476,0.006104,-0.018768
0.005450,0.000508,0.001831,0.008087
0.005500,-0.000148,0.001831,-0.012054
0.005550,-0.001084,0.010986,0.018311
0.005600,-0.001335,-0.003052,-0.012817
0.005650,-0.001736,-0.005493,0.007477
0.005700,-0.001904,0.004883,0.008392
0.005750,-0.000708,0.002441,-0.043945
0.005800,0.001234,0.002441,-0.006409
0.005850,0.003001,0.003052,0.028687
0.005900,0.004195,-0.007324,0.006409
0.005950,0.005650,0.000610,-0.000763
0.006000,0.007430,0.016479,-0.030060
0.006050,0.008484,0.009155,0.002136
0.006100,0.009120,0.000000,-0.010834
0.006150,0.008195,0.004883,-0.019684
0.006200,0.003787,0.001831,-0.026703
0.006250,-0.003920,-0.003052,-0.008087
0.006300,-0.014013,0.011597,-0.043030
0.006350,-0.026246,0.012207,-0.059967
0.006400,-0.039992,-0.003052,-0.051117
0.006450,-0.053572,0.000610,-0.066376
0.006500,-0.065225,-0.010986,-0.050507
0.006550,-0.071270,-0.019531,-0.049133
0.006600,-0.067633,-0.024414,-0.025177
0.006650,-0.050860,-0.035400,0.030365
0.006700,-0.017349,-0.050659,0.033417
0.006750,0.035039,-0.066528,0.123901
0.006800,0.107464,-0.048218,0.155334
0.006850,0.198360,-0.038452,0.211487
0.006900,0.304137,-0.012207,0.273132
0.006950,0.420205,0.012817,0.285187
0.007000,0.539645,0.057373,0.272064
0.007050,0.653722,0.139160,0.242615
0.007100,0.754038,0.241089,0.181885
0.007150,0.833325,0.331421,0.086670
0.007200,0.884504,0.431519,-0.001068
0.007250,0.902367,0.535278,-0.125275
0.007300,0.884994,0.635986,-0.247498
0.007350,0.833713,0.723877,-0.356750
0.007400,0.752197,0.791626,-0.451965
0.007450,0.647438,0.855713,-0.492706
0.007500,0.528752,0.845947,-0.532684
0.007550,0.404612,0.842285,-0.467834
0.007600,0.282847,0.778809,-0.413666
0.007650,0.171715,0.695190,-0.272064
0.007700,0.077983,0.598145,-0.127258
0.007750,0.004630,0.496826,-0.015411
0.007800,-0.047476,0.382690,0.082550
0.007850,-0.079195,0.258789,0.186920
0.007900,-0.092921,0.169678,0.273437
0.007950,-0.091795,0.077515,0.283661
0.008000,-0.080260,0.007935,0.299683
0.008050,-0.062848,-0.040283,0.264740
0.008100,-0.043473,-0.062256,0.207214
0.008150,-0.025265,-0.087280,0.175629
0.008200,-0.010037,-0.072021,0.089111
0.008250,0.001462,-0.067749,0.035095
0.008300,0.009129,-0.051270,0.007019
0.008350,0.012882,-0.017700,-0.050201
0.008400,0.013173,-0.002441,-0.076752
0.008450,0.011641,0.002441,-0.092316
0.008500,0.008779,0.012207,-0.070953
0.008550,0.004819,0.020142,-0.070801
0.008600,0.001654,0.007935,-0.060577
0.008650,0.000052,0.027466,-0.045013
0.008700,-0.000693,0.010376,-0.006409
0.008750,-0.001689,0.007324,0.005188
0.008800,-0.002844,0.011597,0.000458
0.008850,-0.002765,0.012817,0.000763
0.008900,-0.001931,0.014648,-0.003357
0.008950,-0.001956,0.014038,-0.004883
0.009000,-0.002208,0.008545,0.008850
0.009050,-0.001534,-0.004272,-0.011292
0.009100,-0.000673,-0.002441,-0.014038
0.009150,-0.000208,0.004272,-0.015717
0.009200,0.000068,0.002441,-0.022278
0.009250,0.000419,0.006104,-0.014038
0.009300,0.000673,-0.004883,-0.022736
0.009350,0.000631,0.003662,-0.012512
0.009400,0.000047,-0.007324,-0.028687
0.009450,-0.001107,0.007324,-0.027466
0.009500,-0.001295,0.000610,-0.019989
0.009550,-0.000144,0.008545,-0.012054
0.009600,0.000392,0.013428,0.003204
0.009650,-0.000056,0.009155,-0.022583
0.009700,-0.000430,0.003052,-0.013275
0.009750,-0.000781,0.009766,-0.016937
0.009800,-0.000955,-0.003052,-0.037079
0.009850,-0.000730,-0.004272,-0.006409
0.009900,-0.000362,-0.006714,-0.018616
0.009950,0.000052,0.001831,-0.018005
0.010000,-0.000311,0.010986,-0.003204
0.010050,-0.001243,0.004883,-0.008392
0.010100,-0.001725,0.000610,-0.016632
0.010150,-0.001554,0.005493,-0.029297
0.010200,-0.000603,0.003052,-0.021210
0.010250,0.000184,-0.001831,-0.013428
0.010300,-0.000072,0.001221,-0.005035
0.010350,-0.000423,0.006714,-0.017395
0.010400,-0.000141,0.014038,-0.008698
0.010450,0.000179,-0.001831,0.012665
0.010500,-0.000167,0.012207,-0.034027
0.010550,-0.000875,0.002441,-0.028534
0.010600,-0.001040,0.004272,0.003204
0.010650,-0.000975,0.010986,-0.014191
0.010700,-0.001402,0.000000,0.002289
0.010750,-0.001617,-0.000610,-0.001068
0.010800,-0.000957,-0.002441,-0.004425
0.010850,-0.000651,0.001831,-0.008698
0.010900,-0.000816,0.003052,0.000458
0.010950,-0.000416,-0.001831,0.012360
0.011000,-0.000610,-0.003662,0.005798
0.011050,-0.001362,-0.003052,-0.036621
0.011100,-0.001440,0.002441,-0.023041
0.011150,-0.001576,-0.004272,-0.016632
0.011200,-0.001560,-0.012207,-0.022736
0.011250,-0.000436,0.003662,-0.028839
0.011300,0.000221,-0.002441,-0.032959
0.011350,-0.000371,-0.006714,-0.007935
0.011400,-0.000581,-0.010376,-0.012512
0.011450,0.000089,0.001831,-0.038910
0.011500,0.000905,0.014648,-0.020142
0.011550,0.001258,0.006104,-0.014954
0.011600,0.000776,-0.012207,-0.003357
0.011650,0.000424,0.004883,-0.016022
0.011700,0.001033,-0.003662,-0.009918
0.011750,0.001429,-0.002441,-0.012970
0.011800,0.001002,0.001831,-0.019226
0.011850,0.000517,0.002441,0.012970
0.011900,0.000447,-0.001221,-0.014648
0.011950,0.000635,-0.000610,-0.021057
0.012000,0.001007,0.004272,-0.019226
0.012050,0.000875,0.004883,0.009308
0.012100,0.000112,0.015259,-0.011749
0.012150,-0.000492,0.003662,-0.045471
0.012200,-0.001237,0.010986,-0.007324
0.012250,-0.001358,-0.004883,-0.020142
0.012300,-0.000728,0.000610,-0.006104
0.012350,-0.000317,-0.007935,-0.020142
0.012400,0.000188,0.004883,-0.008087
0.012450,0.000719,0.021362,-0.008392
0.012500,0.001225,-0.007324,0.013580
0.012550,0.001225,-0.006714,0.027618
0.012600,0.001058,0.011597,-0.035248
0.012650,0.001344,0.004272,-0.027313
0.012700,0.001163,0.016479,-0.024872
0.012750,0.000601,0.005493,-0.015869
0.012800,0.000408,0.006104,-0.003357
0.012850,0.000445,0.012817,-0.019073
0.012900,0.000174,-0.001221,0.010986
0.012950,0.000049,-0.009766,0.008087
0.013000,0.000369,0.010986,0.010071
0.013050,0.000207,0.003662,-0.016174
0.013100,-0.000605,-0.003052,-0.010376
0.013150,-0.001202,0.000610,-0.011292
0.013200,-0.000949,0.008545,-0.027618
0.013250,-0.000716,0.012207,0.001831
0.013300,-0.000816,-0.002441,-0.005035
0.013350,-0.000330,0.002441,0.003815
0.013400,-0.000038,0.000000,-0.006561
0.013450,-0.000247,-0.010376,-0.009460
0.013500,-0.000453,0.003052,0.016937
0.013550,-0.000795,-0.001831,-0.004120
0.013600,-0.000836,0.010376,-0.024719
0.013650,-0.000553,-0.001221,-0.026093
0.013700,-0.000385,0.001221,-0.015564
0.013750,-0.001056,0.014648,-0.028687
0.013800,-0.001758,-0.000610,0.016632
0.013850,-0.000875,0.001831,0.006104
0.013900,-0.000013,-0.003052,-0.016174
0.013950,-0.000106,0.001221,-0.007629
0.014000,-0.000294,0.003052,0.003815
0.014050,-0.000423,-0.003052,-0.038910
0.014100,-0.000600,0.004272,0.001984
0.014150,-0.000614,0.003662,-0.010681
0.014200,-0.000202,-0.007935,0.006409
0.014250,-0.000576,-0.008545,-0.005951
0.014300,-0.001171,0.003662,-0.011139
0.014350,-0.000540,0.003662,-0.005493
0.014400,0.000523,-0.004272,-0.014038
0.014450,0.001160,0.002441,-0.025024
0.014500,0.001175,-0.011597,-0.009918
0.014550,0.000936,-0.005493,-0.008240
0.014600,0.000587,-0.006104,-0.036163
