t [s],u [deg],y [deg],i [A]
0.000000,-0.000449,-0.002441,-0.015411
0.000050,-0.000624,0.003052,-0.029144
0.000100,-0.001023,0.002441,-0.025787
0.000150,-0.001981,0.002441,-0.010529
0.000200,-0.002499,0.012207,-0.009460
0.000250,-0.001887,0.009766,-0.024872
0.000300,-0.000696,0.012207,-0.016174
0.000350,0.000476,0.004272,-0.010681
0.000400,0.001178,0.004883,0.004272
0.000450,0.000925,-0.000610,0.014801
0.000500,0.000881,0.003052,-0.004425
0.000550,0.000904,-0.006714,-0.007935
0.000600,-0.000292,0.003662,-0.029297
0.000650,-0.001358,0.011597,-0.011902
0.000700,-0.001282,0.007324,-0.017242
0.000750,-0.001282,0.004883,-0.013123
0.000800,-0.001552,-0.010986,0.005798
0.000850,-0.001381,0.001221,-0.011597
0.000900,-0.001016,0.019531,0.000458
0.000950,-0.000804,-0.015259,-0.015869
0.001000,-0.001277,-0.000610,-0.003357
0.001050,-0.001511,0.003662,-0.016937
0.001100,-0.000662,-0.006714,-0.001221
0.001150,-0.000064,0.015869,-0.030670
0.001200,-0.000154,0.001221,-0.010376
0.001250,0.000123,0.001831,0.000458
0.001300,0.000938,-0.003662,0.006714
0.001350,0.001353,0.017090,-0.011292
0.001400,0.000940,-0.005493,-0.005493
0.001450,0.000353,0.001831,-0.040894
0.001500,-0.000152,0.009155,0.016479
0.001550,-0.000666,-0.001831,-0.013885
0.001600,-0.000358,-0.001831,0.025177
0.001650,0.000578,-0.002441,-0.040588
0.001700,0.000493,0.000000,-0.012665
0.001750,-0.000695,0.006714,-0.030975
0.001800,-0.001181,-0.001221,0.008850
0.001850,-0.000957,-0.010986,0.005798
0.001900,-0.001149,-0.001221,-0.037689
0.001950,-0.001333,0.001831,-0.014038
0.002000,-0.001144,0.009155,-0.029297
0.002050,-0.000706,0.013428,-0.045624
0.002100,0.000073,0.000610,0.012207
0.002150,0.000513,0.004883,0.000000
0.002200,0.000714,-0.004883,-0.001526
0.002250,0.001351,0.000610,-0.005798
0.002300,0.001282,0.012207,-0.007782
0.002350,-0.000116,0.008545,0.006561
0.002400,-0.001408,0.000610,-0.033264
0.002450,-0.001717,0.005493,-0.039825
0.002500,-0.001318,0.009155,0.012665
0.002550,-0.000137,0.007324,-0.012360
0.002600,0.000743,-0.003662,-0.009918
0.002650,0.000440,0.003662,0.029297
0.002700,0.000301,-0.000610,-0.032806
0.002750,0.000824,0.003052,-0.021362
0.002800,0.000863,0.000000,-0.018616
0.002850,0.000269,-0.010376,-0.018768
0.002900,-0.000214,0.008545,-0.013733
0.002950,-0.000210,-0.001831,0.018768
0.003000,-0.000149,0.015259,-0.005646
0.003050,-0.000613,-0.005493,-0.004578
0.003100,-0.001105,0.003662,0.000153
0.003150,-0.001165,-0.002441,-0.028076
0.003200,-0.000115,0.003662,-0.013580
0.003250,0.001438,-0.001221,-0.028229
0.003300,0.001596,-0.003052,-0.004578
0.003350,0.000909,-0.003052,0.013123
0.003400,0.000907,-0.000610,-0.020599
0.003450,0.001477,-0.000610,-0.003967
0.003500,0.001794,0.012207,0.011749
0.003550,0.001807,0.003052,-0.020142
0.003600,0.001663,-0.000610,0.002747
0.003650,0.001229,-0.010376,-0.011444
0.003700,0.000515,0.014648,0.000305
0.003750,-0.000256,-0.001831,-0.017853
0.003800,-0.000545,0.001221,-0.005035
0.003850,-0.000294,-0.006714,0.000610
0.003900,-0.000221,0.018921,-0.004272
0.003950,0.000216,-0.000610,-0.000305
0.004000,0.001493,0.001831,-0.018311
0.004050,0.002258,0.005493,0.032196
0.004100,0.002471,0.005493,0.007477
0.004150,0.002517,-0.000610,0.007935
0.004200,0.001771,-0.004272,0.009613
0.004250,0.000844,0.002441,-0.007477
0.004300,0.000448,-0.002441,-0.003357
0.004350,-0.000012,0.000000,-0.006256
0.004400,-0.000377,0.004272,-0.018005
0.004450,0.000338,0.001831,0.001373
0.004500,0.001922,0.007324,-0.000305
0.004550,0.002422,0.005493,0.011749
0.004600,0.001734,-0.010376,0.004120
0.004650,0.001559,0.015869,-0.014496
0.004700,0.002041,0.010986,-0.030823
0.004750,0.002352,-0.007935,-0.019684
0.004800,0.001864,0.000610,-0.012817
0.004850,0.002076,0.006104,-0.003967
0.004900,0.002970,-0.006714,-0.017395
0.004950,0.002608,0.008545,-0.010071
0.005000,0.001716,-0.010376,-0.010986
0.005050,0.000832,-0.004883,-0.017090
0.005100,-0.000480,0.010376,-0.030212
0.005150,-0.001331,0.000610,-0.031891
0.005200,-0.001062,0.005493,-0.009155
0.005250,-0.000348,0.008545,-0.006561
0.005300,0.000101,0.004883,-0.016785
0.005350,0.000141,0.000610,-0.019226
0.005400,0.000209,-0.003052,0.009308
0.005450,0.000100,0.006104,-0.011902
0.005500,-0.000770,0.007324,0.000458
0.005550,-0.001233,-0.000610,-0.015259
0.005600,-0.000552,0.014038,-0.018311
0.005650,0.000690,0.006104,-0.010681
0.005700,0.002799,0.009155,-0.020752
0.005750,0.006310,0.013428,0.020599
0.005800,0.009749,0.005493,0.009003
0.005850,0.012084,-0.009766,0.013123
0.005900,0.013849,-0.004883,0.012970
0.005950,0.014351,0.002441,-0.006561
0.006000,0.012603,0.007324,0.005798
0.006050,0.007286,0.013428,-0.006104
0.006100,-0.001960,0.003662,-0.018005
0.006150,-0.014884,0.008545,-0.030518
0.006200,-0.031270,0.010376,-0.062256
0.006250,-0.049392,0.006714,-0.074921
0.006300,-0.067369,-0.004272,-0.045929
0.006350,-0.082288,-0.003662,-0.057068
0.006400,-0.089762,-0.025635,-0.046997
0.006450,-0.085094,-0.037842,-0.015869
0.006500,-0.064732,-0.054321,0.018158
0.006550,-0.026032,-0.064697,0.077667
0.006600,0.033234,-0.070190,0.141754
0.006650,0.113943,-0.077515,0.214233
0.006700,0.214621,-0.054932,0.249634
0.006750,0.330441,-0.046387,0.308685
0.006800,0.454549,0.012817,0.304260
0.006850,0.578394,0.057983,0.274963
0.006900,0.692907,0.139160,0.233459
0.006950,0.790049,0.246582,0.158081
0.007000,0.861816,0.338745,0.058746
0.007050,0.902125,0.461426,-0.059967
0.007100,0.908293,0.559692,-0.181274
0.007150,0.879711,0.683594,-0.300903
0.007200,0.818972,0.758667,-0.415192
0.007250,0.731595,0.812378,-0.505371
0.007300,0.624648,0.845947,-0.520172
0.007350,0.507154,0.861816,-0.509186
0.007400,0.387661,0.831299,-0.438843
0.007450,0.273662,0.771484,-0.331116
0.007500,0.172267,0.697632,-0.233917
0.007550,0.087841,0.590210,-0.109253
0.007600,0.021641,0.477295,0.014343
0.007650,-0.026364,0.371704,0.103455
0.007700,-0.056574,0.264282,0.192261
0.007750,-0.070851,0.168457,0.254364
0.007800,-0.072783,0.089111,0.258484
0.007850,-0.066720,0.020142,0.269470
0.007900,-0.056038,-0.019531,0.214539
0.007950,-0.042049,-0.042725,0.186157
0.008000,-0.027576,-0.059814,0.119324
0.008050,-0.015365,-0.059204,0.096588
0.008100,-0.005869,-0.057983,0.016174
0.008150,0.000575,-0.040283,-0.006256
0.008200,0.004416,-0.023804,-0.024414
0.008250,0.005677,-0.023804,-0.040741
0.008300,0.005061,-0.006714,-0.068665
0.008350,0.003639,-0.012207,-0.046997
0.008400,0.001509,0.008545,-0.054321
0.008450,-0.000815,0.020752,-0.046539
0.008500,-0.002469,0.012817,-0.036469
0.008550,-0.003163,0.002441,-0.019379
0.008600,-0.003641,0.007935,-0.012360
0.008650,-0.003539,0.004883,-0.021820
0.008700,-0.002805,-0.007324,-0.021820
0.008750,-0.002442,-0.003052,-0.000458
0.008800,-0.002568,0.001831,0.016327
0.008850,-0.002502,0.001221,-0.001678
0.008900,-0.001560,0.007324,0.002136
0.008950,-0.000812,-0.000610,-0.009003
0.009000,-0.001035,-0.008545,0.007019
0.009050,-0.001301,0.004272,-0.010376
0.009100,-0.001165,-0.004272,-0.000458
0.009150,-0.001339,0.003052,-0.016022
0.009200,-0.002159,-0.005493,0.003357
0.009250,-0.002501,-0.001221,-0.011902
0.009300,-0.002006,0.006714,-0.016479
0.009350,-0.001114,-0.001221,-0.021667
0.009400,-0.000215,-0.000610,-0.008545
0.009450,-0.000115,-0.002441,-0.036011
0.009500,-0.000355,-0.004272,-0.003662
0.009550,-0.000578,0.001221,-0.023346
0.009600,-0.001407,0.001221,-0.014191
0.009650,-0.001430,-0.006714,-0.025330
0.009700,-0.000400,0.000610,-0.031281
0.009750,-0.000534,0.004883,-0.024719
0.009800,-0.001063,-0.012207,-0.008087
0.009850,-0.000683,-0.006714,-0.018158
0.009900,0.000375,-0.010986,-0.018311
0.009950,0.001440,-0.010376,-0.029449
0.010000,0.001575,0.012817,-0.019989
0.010050,0.001506,0.005493,-0.019531
0.010100,0.001451,-0.003662,-0.021973
0.010150,0.000693,-0.000610,0.021515
0.010200,0.000120,0.007324,-0.041046
0.010250,0.000834,0.015259,-0.033722
0.010300,0.001053,0.001831,-0.035095
0.010350,-0.000448,0.004883,0.006561
0.010400,-0.001521,-0.001221,-0.009155
0.010450,-0.001718,0.003052,-0.020905
0.010500,-0.001821,0.007324,-0.017853
0.010550,-0.001401,-0.008545,-0.010376
0.010600,-0.000908,0.009766,-0.010986
0.010650,-0.000670,0.008545,-0.014954
0.010700,-0.000297,0.004883,0.003357
0.010750,0.000166,0.000000,0.008240
0.010800,0.000388,0.001221,-0.021362
0.010850,0.000167,-0.002441,0.008698
0.010900,-0.000466,0.017700,-0.014343
0.010950,-0.001381,0.004272,-0.009613
0.011000,-0.002091,0.016479,-0.057068
0.011050,-0.002430,0.021362,-0.032654
0.011100,-0.002741,0.004883,-0.006714
0.011150,-0.002666,0.003052,-0.021057
0.011200,-0.002224,-0.012817,0.009308
0.011250,-0.002015,-0.001831,-0.020905
0.011300,-0.001857,-0.001221,0.009308
0.011350,-0.001902,-0.008545,-0.009918
0.011400,-0.001665,0.010376,0.008545
0.011450,-0.000582,0.006104,-0.030060
0.011500,0.000093,-0.008545,-0.009918
0.011550,-0.000031,-0.000610,-0.018005
0.011600,0.000058,0.000610,-0.047607
0.011650,0.000419,-0.006714,0.009613
0.011700,0.000623,0.008545,-0.018616
0.011750,0.001049,-0.004272,-0.020294
0.011800,0.001804,0.015869,-0.029297
0.011850,0.001746,0.003662,-0.014191
0.011900,0.000666,0.001831,0.006409
0.011950,-0.000104,0.007324,-0.011444
0.012000,-0.000324,0.010986,-0.025482
0.012050,-0.000676,-0.003052,-0.010986
0.012100,-0.000922,0.012207,-0.023651
0.012150,-0.000561,0.000610,-0.013428
0.012200,0.000441,0.000000,-0.017700
0.012250,0.001486,0.009155,-0.008698
0.012300,0.001624,0.002441,-0.010376
0.012350,0.000950,-0.001831,0.014954
0.012400,0.000081,0.002441,-0.016937
0.012450,-0.000491,0.004272,-0.000763
0.012500,-0.000688,0.007324,-0.023804
0.012550,-0.000941,-0.003662,0.001373
0.012600,-0.000657,0.000610,0.000153
0.012650,0.000253,0.015869,-0.008698
0.012700,0.000429,0.001221,0.003357
0.012750,-0.000222,0.002441,0.019989
0.012800,-0.000630,0.004883,-0.009918
0.012850,-0.000270,0.008545,-0.016174
0.012900,-0.000082,-0.006714,-0.006409
0.012950,-0.000845,0.004883,-0.025024
0.013000,-0.001805,0.009155,-0.016937
0.013050,-0.002182,-0.003662,-0.006561
0.013100,-0.001741,0.004272,-0.005798
0.013150,-0.000994,0.007324,-0.014496
0.013200,-0.000811,-0.003662,0.010071
0.013250,-0.001250,-0.004272,-0.009613
0.013300,-0.001305,0.003052,0.003510
0.013350,-0.000640,-0.004883,-0.004883
0.013400,-0.000209,-0.001831,-0.006714
0.013450,0.000178,-0.007935,-0.009155
0.013500,0.001160,-0.006104,-0.003510
0.013550,0.001477,0.015869,-0.020905
0.013600,0.000941,0.009155,-0.013428
0.013650,0.000453,0.012207,-0.021057
0.013700,-0.000412,0.005493,-0.029907
0.013750,-0.001279,0.014038,-0.018158
0.013800,-0.001136,0.002441,-0.016327
0.013850,-0.000365,0.014038,0.000916
0.013900,-0.000463,0.003052,-0.008850
0.013950,-0.001136,-0.000610,-0.018311
0.014000,-0.000595,0.001831,-0.003510
0.014050,0.000445,0.009766,-0.010681
0.014100,0.000250,-0.006714,-0.036621
0.014150,-0.000705,0.007935,-0.003204
0.014200,-0.001038,0.006104,-0.016174
0.014250,-0.000623,-0.005493,-0.018158
0.014300,0.000073,0.006104,-0.032043
0.014350,0.001389,-0.011597,-0.003510
0.014400,0.002352,0.006104,-0.001373
0.014450,0.002082,0.007935,0.002136
0.014500,0.001915,0.004272,-0.014954
0.014550,0.002052,-0.001831,-0.024567
0.014600,0.001546,0.007324,-0.016022
