t [s],u [deg],y [deg],i [A]
0.000000,-0.000056,0.003662,-0.016174
0.000050,-0.000297,-0.001831,-0.015869
0.000100,-0.000652,-0.003052,-0.015564
0.000150,-0.000179,0.009766,0.006256
0.000200,0.000545,-0.003662,0.005188
0.000250,0.000650,-0.000610,0.008850
0.000300,0.000595,-0.008545,-0.023041
0.000350,0.000401,0.009766,-0.027313
0.000400,-0.000234,0.001221,-0.025482
0.000450,-0.000605,0.003052,-0.015717
0.000500,-0.000501,-0.001831,-0.031586
0.000550,-0.000777,-0.010376,-0.030060
0.000600,-0.001499,0.005493,-0.017395
0.000650,-0.001658,0.001831,-0.014038
0.000700,-0.001134,-0.001221,-0.005493
0.000750,-0.000443,0.020142,-0.004730
0.000800,0.000670,-0.004883,0.004730
0.000850,0.001680,0.004883,-0.003357
0.000900,0.001535,0.006714,-0.020142
0.000950,0.000981,0.000610,-0.019836
0.001000,0.001454,0.010376,0.002594
0.001050,0.001778,-0.003052,-0.007019
0.001100,0.001161,0.002441,-0.008392
0.001150,0.000717,-0.003052,-0.040131
0.001200,0.000833,-0.009155,-0.000763
0.001250,0.001506,0.003052,-0.018616
0.001300,0.001751,-0.007935,-0.013428
0.001350,0.001699,0.003052,-0.008240
0.001400,0.001882,-0.000610,-0.008392
0.001450,0.000917,-0.003662,-0.032349
0.001500,-0.000129,0.003052,-0.012054
0.001550,0.000113,0.015259,-0.010986
0.001600,0.000363,0.006104,-0.018158
0.001650,0.000268,-0.008545,-0.020294
0.001700,0.000103,0.010376,-0.005035
0.001750,0.000095,0.005493,-0.006256
0.001800,0.000122,0.006714,-0.025330
0.001850,-0.000491,-0.006714,-0.001068
0.001900,-0.000889,0.000000,-0.015411
0.001950,-0.000506,0.009155,-0.007935
0.002000,-0.000183,-0.000610,0.000153
0.002050,0.000013,-0.001831,0.005035
0.002100,-0.000234,0.002441,0.016479
0.002150,-0.000726,0.007324,-0.001068
0.002200,-0.000134,0.002441,-0.027161
0.002250,0.000802,0.006104,-0.035095
0.002300,0.000450,0.001831,-0.030670
0.002350,-0.000361,-0.009155,-0.010071
0.002400,-0.000515,-0.004272,-0.016937
0.002450,-0.000700,-0.007324,0.007477
0.002500,-0.000935,0.011597,-0.020142
0.002550,-0.000812,0.001221,-0.009918
0.002600,-0.000785,0.007324,-0.037231
0.002650,-0.000320,0.010376,-0.032501
0.002700,0.000918,0.000610,0.005035
0.002750,0.001570,-0.009766,0.014343
0.002800,0.001486,-0.006104,-0.006409
0.002850,0.001372,-0.001221,-0.007019
0.002900,0.000983,-0.008545,0.007935
0.002950,0.000101,0.003662,-0.006714
0.003000,-0.000637,0.006714,-0.043640
0.003050,-0.000911,0.007324,-0.033264
0.003100,-0.000888,0.010986,-0.028076
0.003150,-0.000808,0.004883,-0.026550
0.003200,-0.000869,0.004883,-0.017242
0.003250,-0.000252,-0.007324,-0.023346
0.003300,0.000852,-0.010986,0.012054
0.003350,0.001303,0.004883,0.001373
0.003400,0.000973,0.005493,-0.023956
0.003450,0.000343,-0.000610,0.006104
0.003500,-0.000379,0.001831,-0.003204
0.003550,-0.000222,0.017700,-0.042725
0.003600,0.000650,0.006714,-0.011749
0.003650,0.000639,0.009766,-0.014343
0.003700,0.000915,0.004272,0.015869
0.003750,0.001891,-0.012207,0.019989
0.003800,0.001776,0.007935,-0.016479
0.003850,0.000972,-0.003662,-0.026398
0.003900,0.000611,0.001221,-0.011292
0.003950,0.000204,0.013428,-0.030975
0.004000,-0.000192,-0.005493,-0.013733
0.004050,-0.000265,0.008545,-0.002747
0.004100,-0.000348,-0.006714,-0.034943
0.004150,-0.000447,0.001831,-0.029907
0.004200,-0.000501,-0.012207,-0.006866
0.004250,-0.000387,-0.010376,0.000610
0.004300,-0.000228,0.001831,-0.009766
0.004350,-0.000146,0.004883,0.011902
0.004400,-0.000077,-0.000610,-0.005341
0.004450,-0.000106,-0.000610,-0.009918
0.004500,-0.000071,-0.002441,0.001221
0.004550,0.000596,-0.012207,-0.018005
0.004600,0.001071,-0.012817,-0.012817
0.004650,0.000657,0.009155,-0.007172
0.004700,0.000519,0.005493,-0.003967
0.004750,0.000662,0.002441,-0.024872
0.004800,0.000139,0.009155,0.000610
0.004850,-0.000659,-0.006714,-0.012970
0.004900,-0.001012,-0.009155,-0.014343
0.004950,-0.001215,0.013428,-0.018768
0.005000,-0.001249,0.004272,-0.005035
0.005050,-0.001231,-0.000610,-0.013580
0.005100,-0.001039,0.006714,-0.003204
0.005150,0.000024,0.012817,-0.023346
0.005200,0.000956,-0.003662,-0.030823
0.005250,0.000604,-0.001831,-0.013275
0.005300,-0.000003,0.004883,-0.000153
0.005350,-0.000129,0.002441,-0.001526
0.005400,-0.000441,-0.002441,-0.024872
0.005450,-0.000652,-0.007935,-0.014038
0.005500,-0.000652,0.017700,-0.009766
0.005550,-0.000912,0.001221,-0.003967
0.005600,-0.001143,0.000000,-0.032959
0.005650,-0.000781,-0.005493,-0.000458
0.005700,0.001371,0.004272,-0.015869
0.005750,0.004656,-0.011597,-0.004730
0.005800,0.007493,0.001221,-0.002899
0.005850,0.010157,0.009155,-0.000458
0.005900,0.012578,-0.006714,0.006256
0.005950,0.013618,0.003052,-0.014496
0.006000,0.011422,0.013428,-0.009308
0.006050,0.005152,0.005493,-0.005951
0.006100,-0.005186,0.002441,-0.012665
0.006150,-0.019655,0.016479,-0.036926
0.006200,-0.037457,0.014648,-0.047455
0.006250,-0.057050,0.015869,-0.048523
0.006300,-0.075814,0.008545,-0.063629
0.006350,-0.090022,-0.012817,-0.062408
0.006400,-0.095010,-0.016479,-0.021973
0.006450,-0.085678,-0.041504,-0.006104
0.006500,-0.057885,-0.060425,0.047607
0.006550,-0.008493,-0.071411,0.100250
0.006600,0.064070,-0.075684,0.172729
0.006650,0.158820,-0.073853,0.230713
0.006700,0.272047,-0.051270,0.279083
0.006750,0.397869,-0.022583,0.326691
0.006800,0.529647,0.031738,0.312805
0.006850,0.658053,0.101318,0.279541
0.006900,0.771898,0.198975,0.216064
0.006950,0.862633,0.292358,0.141907
0.007000,0.923515,0.416260,0.002594
0.007050,0.948671,0.522461,-0.124664
0.007100,0.935530,0.654297,-0.251617
0.007150,0.885734,0.744629,-0.393677
0.007200,0.803738,0.827637,-0.490265
0.007250,0.696499,0.864258,-0.542145
0.007300,0.573224,0.889282,-0.533295
0.007350,0.443414,0.875244,-0.521240
0.007400,0.316000,0.827637,-0.433197
0.007450,0.198928,0.757446,-0.316925
0.007500,0.098733,0.645752,-0.184326
0.007550,0.019765,0.532837,-0.036621
0.007600,-0.037079,0.411987,0.094147
0.007650,-0.072960,0.307007,0.206299
0.007700,-0.089984,0.185547,0.267944
0.007750,-0.092053,0.094604,0.294952
0.007800,-0.083856,0.032349,0.308838
0.007850,-0.069062,-0.027466,0.278015
0.007900,-0.051038,-0.059204,0.229034
0.007950,-0.033490,-0.066528,0.166473
0.008000,-0.018554,-0.067749,0.107269
0.008050,-0.006738,-0.056763,0.036621
0.008100,0.001565,-0.051880,-0.006256
0.008150,0.006248,-0.033569,-0.051270
0.008200,0.007907,-0.028076,-0.074768
0.008250,0.007360,-0.010986,-0.068665
0.008300,0.005785,0.002441,-0.068359
0.008350,0.003816,0.018311,-0.075684
0.008400,0.001624,0.011597,-0.032654
0.008450,0.000274,0.010376,-0.033112
0.008500,-0.000506,0.006104,-0.008850
0.008550,-0.001554,0.019531,-0.012665
0.008600,-0.001942,0.004883,-0.004578
0.008650,-0.001563,0.001221,-0.003357
0.008700,-0.001667,-0.000610,-0.022278
0.008750,-0.001956,0.002441,-0.010071
0.008800,-0.001316,-0.003052,0.002289
0.008850,-0.000566,0.006104,0.003052
0.008900,-0.000625,0.013428,0.009003
0.008950,-0.000885,0.011597,-0.002899
0.009000,-0.001052,0.005493,-0.017700
0.009050,-0.001448,0.001221,-0.007324
0.009100,-0.002029,0.012817,-0.020905
0.009150,-0.002454,0.010986,-0.021667
0.009200,-0.002657,-0.006104,-0.010986
0.009250,-0.002886,-0.010376,-0.010071
0.009300,-0.003193,0.002441,-0.014648
0.009350,-0.002992,0.002441,0.014343
0.009400,-0.002588,-0.003662,-0.023193
0.009450,-0.002030,-0.009155,0.012665
0.009500,-0.001028,-0.007324,0.003662
0.009550,-0.000982,-0.000610,-0.005951
0.009600,-0.001732,0.003662,-0.006409
0.009650,-0.001676,-0.005493,-0.028992
0.009700,-0.000925,0.006104,-0.005341
0.009750,-0.000655,0.006714,-0.009003
0.009800,-0.000688,-0.008545,0.004883
0.009850,-0.000671,-0.002441,-0.012360
0.009900,-0.000946,0.012207,-0.042725
0.009950,-0.000382,-0.003052,-0.040283
0.010000,0.000864,-0.000610,-0.015259
0.010050,0.001096,0.007935,-0.007629
0.010100,0.000526,0.002441,-0.022888
0.010150,-0.000194,-0.006714,-0.006104
0.010200,-0.001130,-0.001221,-0.028229
0.010250,-0.002163,0.001221,-0.028229
0.010300,-0.002710,0.000000,-0.026093
0.010350,-0.002551,-0.003052,-0.003967
0.010400,-0.001843,0.003662,0.005493
0.010450,-0.000830,0.003052,-0.018921
0.010500,-0.000138,0.018311,-0.027008
0.010550,0.000546,0.001221,-0.012054
0.010600,0.001082,0.009155,-0.007019
0.010650,0.000582,-0.012207,-0.010529
0.010700,-0.000499,0.009155,-0.011444
0.010750,-0.000781,0.018921,-0.009308
0.010800,0.000125,-0.001831,-0.018921
0.010850,0.000319,0.012817,-0.013580
0.010900,-0.000796,0.023804,-0.012970
0.010950,-0.001239,-0.008545,-0.015564
0.011000,-0.001063,0.006104,0.011292
0.011050,-0.001692,0.001221,0.006104
0.011100,-0.001871,-0.001831,0.006409
0.011150,-0.000669,0.006104,-0.010223
0.011200,-0.000305,-0.001221,-0.012817
0.011250,-0.001493,0.005493,-0.001831
0.011300,-0.001892,0.002441,-0.023499
0.011350,-0.001025,0.001221,-0.009003
0.011400,-0.000504,-0.003662,-0.024872
0.011450,-0.000202,0.004272,-0.019989
0.011500,0.000673,-0.007324,-0.013123
0.011550,0.001372,-0.010986,0.035248
0.011600,0.001387,-0.002441,-0.003662
0.011650,0.001150,-0.002441,-0.021210
0.011700,0.000634,0.007324,-0.010529
0.011750,-0.000023,0.001221,-0.025482
0.011800,-0.000786,-0.005493,-0.020905
0.011850,-0.001544,-0.013428,-0.015564
0.011900,-0.001934,0.004883,-0.022888
0.011950,-0.002003,0.006104,-0.012817
0.012000,-0.002019,-0.012207,0.008698
0.012050,-0.002167,0.012817,0.008087
0.012100,-0.001747,-0.018921,0.015411
0.012150,-0.001329,-0.012207,-0.000916
0.012200,-0.001158,0.007324,-0.027008
0.012250,-0.000563,-0.004883,-0.033722
0.012300,-0.000288,0.006104,0.016327
0.012350,-0.000135,-0.013428,0.013733
0.012400,-0.000133,0.001221,-0.021057
0.012450,-0.000781,0.005493,-0.001373
0.012500,-0.000903,-0.003662,-0.017395
0.012550,-0.000238,0.006714,-0.003815
0.012600,0.000004,0.010986,-0.020752
0.012650,-0.000342,0.006104,-0.024872
0.012700,-0.001051,-0.005493,0.012054
0.012750,-0.001491,0.001831,-0.009918
0.012800,-0.001096,-0.007935,-0.001678
0.012850,-0.000665,0.010986,-0.007019
0.012900,-0.000290,-0.003052,-0.002136
0.012950,-0.000243,-0.003052,0.013428
0.013000,-0.000961,-0.001221,-0.018768
0.013050,-0.001112,-0.003662,-0.023956
0.013100,-0.000156,-0.006714,-0.011597
0.013150,0.001018,0.006714,0.003967
0.013200,0.001738,-0.003662,-0.011292
0.013250,0.002202,0.002441,0.007782
0.013300,0.002158,-0.009155,0.008392
0.013350,0.001193,0.007935,-0.027466
0.013400,0.000293,0.008545,-0.031738
0.013450,0.000307,0.003052,-0.018311
0.013500,0.000419,0.014648,-0.017700
0.013550,0.000133,0.001221,-0.021362
0.013600,0.000418,0.000000,-0.046082
0.013650,0.000815,0.002441,-0.019836
0.013700,0.000957,0.004883,0.012512
0.013750,0.001464,0.007324,0.009918
0.013800,0.001644,0.012207,-0.008545
0.013850,0.001042,0.012817,-0.005341
0.013900,0.000601,0.006104,0.014954
0.013950,0.000780,0.013428,-0.022430
0.014000,0.001296,0.006714,-0.010986
0.014050,0.001513,0.010376,-0.013275
0.014100,0.001321,0.009155,0.012360
0.014150,0.001131,-0.004883,-0.008545
0.014200,0.000725,0.005493,-0.022888
0.014250,0.000662,0.009155,-0.032654
0.014300,0.001280,0.010986,-0.011444
0.014350,0.001974,0.003052,-0.015106
0.014400,0.002736,0.007324,-0.006561
0.014450,0.003646,0.008545,-0.010071
0.014500,0.003914,-0.006714,0.010834
0.014550,0.003650,0.017700,-0.009918
0.014600,0.002813,0.003662,-0.010529
