t [s],u [deg],y [deg],i [A]
0.000000,-0.001688,-0.001831,-0.010986
0.000050,-0.002472,-0.006714,-0.009766
0.000100,-0.002173,0.004272,-0.016022
0.000150,-0.002053,-0.003662,-0.015106
0.000200,-0.001985,-0.002441,-0.031738
0.000250,-0.001178,0.004272,-0.001373
0.000300,-0.000469,-0.015869,-0.000458
0.000350,-0.000339,-0.001221,0.006409
0.000400,-0.000753,0.014038,-0.007477
0.000450,-0.001633,0.001831,-0.029449
0.000500,-0.001772,0.006714,-0.032349
0.000550,-0.001344,0.001221,-0.009766
0.000600,-0.001531,0.000610,-0.000763
0.000650,-0.001313,0.002441,-0.020752
0.000700,-0.000333,-0.016479,0.013580
0.000750,0.000586,-0.003052,-0.011139
0.000800,0.001038,0.003662,0.000458
0.000850,0.000816,0.000610,-0.017700
0.000900,0.000234,0.002441,-0.041351
0.000950,-0.000469,0.010986,-0.003052
0.001000,-0.000988,-0.001221,-0.048676
0.001050,-0.000675,0.001221,-0.019989
0.001100,0.000175,-0.006714,0.001831
0.001150,0.000975,-0.001831,-0.002899
0.001200,0.001825,0.007935,-0.004730
0.001250,0.001852,-0.003052,-0.000916
0.001300,0.001372,0.005493,0.018311
0.001350,0.001322,0.004883,-0.047455
0.001400,0.001003,0.010376,-0.034485
0.001450,0.000645,0.020142,-0.021820
0.001500,0.000599,-0.008545,-0.020905
0.001550,0.000106,0.004272,0.016479
0.001600,-0.000814,0.004272,-0.015411
0.001650,-0.001169,-0.004883,0.004272
0.001700,-0.000637,0.003052,-0.000610
0.001750,0.000148,0.022583,-0.012817
0.001800,-0.000066,-0.005493,-0.019989
0.001850,-0.001139,-0.003052,-0.001373
0.001900,-0.001800,0.000610,-0.004730
0.001950,-0.002107,0.001221,-0.011139
0.002000,-0.001923,-0.006104,-0.016174
0.002050,-0.000841,0.005493,-0.001831
0.002100,-0.000134,-0.002441,0.010071
0.002150,-0.000302,0.004272,-0.023193
0.002200,-0.000444,-0.009766,0.000763
0.002250,-0.000460,0.000610,-0.006714
0.002300,0.000021,-0.003052,-0.012817
0.002350,0.000672,0.010376,-0.018616
0.002400,0.001062,-0.003662,-0.010071
0.002450,0.001438,0.003052,-0.003967
0.002500,0.001518,0.005493,-0.004578
0.002550,0.000774,0.006104,-0.009155
0.002600,-0.000069,0.007324,-0.005798
0.002650,0.000162,0.007935,-0.000153
0.002700,0.000624,0.010986,-0.021667
0.002750,0.000546,-0.000610,0.010376
0.002800,-0.000040,-0.000610,-0.015564
0.002850,-0.000695,0.003662,-0.005951
0.002900,-0.000930,-0.000610,-0.011444
0.002950,-0.000439,0.003052,-0.026093
0.003000,0.000376,0.012817,-0.016632
0.003050,0.000985,-0.006714,-0.012665
0.003100,0.001277,0.005493,-0.018768
0.003150,0.000494,0.003052,-0.016022
0.003200,-0.000177,0.001831,-0.023499
0.003250,0.000142,0.003662,-0.019226
0.003300,0.000079,0.006104,-0.019684
0.003350,-0.000280,0.008545,-0.004120
0.003400,-0.000702,0.004883,0.007477
0.003450,-0.001402,0.003662,0.002747
0.003500,-0.001846,0.012207,0.000153
0.003550,-0.002116,0.015259,-0.002747
0.003600,-0.001714,0.009766,0.007172
0.003650,-0.000627,0.004272,0.011902
0.003700,-0.000444,0.001221,0.003510
0.003750,-0.000959,0.003662,-0.016785
0.003800,-0.001027,0.000610,-0.002594
0.003850,-0.000748,0.001221,0.008545
0.003900,-0.000234,0.000000,-0.024414
0.003950,0.000681,0.007935,-0.034943
0.004000,0.001350,0.007324,-0.000610
0.004050,0.001618,0.007324,-0.018463
0.004100,0.001826,0.001221,-0.012360
0.004150,0.001655,0.004272,0.001526
0.004200,0.000990,-0.000610,-0.008545
0.004250,0.000360,-0.007324,-0.030212
0.004300,0.000201,0.003662,-0.014648
0.004350,-0.000019,0.005493,-0.019379
0.004400,-0.000598,0.002441,-0.012207
0.004450,-0.001156,-0.007324,-0.016327
0.004500,-0.001205,-0.012817,0.002594
0.004550,-0.000612,0.006104,-0.000763
0.004600,-0.000178,0.007935,-0.011902
0.004650,0.000244,-0.001221,-0.004272
0.004700,0.000909,-0.010376,-0.019836
0.004750,0.000655,0.004272,0.001526
0.004800,-0.000721,0.006104,-0.015564
0.004850,-0.001694,-0.003052,-0.014496
0.004900,-0.001448,0.008545,-0.013428
0.004950,-0.001053,0.006104,-0.010834
0.005000,-0.000913,-0.002441,-0.002289
0.005050,-0.001010,0.002441,0.007935
0.005100,-0.001436,-0.008545,-0.009613
0.005150,-0.001854,0.006714,-0.021973
0.005200,-0.001980,0.002441,-0.004425
0.005250,-0.001492,-0.006104,0.000153
0.005300,-0.000637,0.000000,-0.010376
0.005350,0.000276,-0.006714,-0.014801
0.005400,0.000766,0.003662,0.001221
0.005450,0.000706,0.004272,-0.007782
0.005500,0.000290,0.007324,-0.001526
0.005550,-0.000304,-0.003662,-0.019226
0.005600,0.000106,-0.008545,-0.019531
0.005650,0.001509,-0.002441,-0.029144
0.005700,0.003510,0.005493,-0.023041
0.005750,0.006697,0.013428,-0.003815
0.005800,0.010122,0.003052,0.002899
0.005850,0.012542,0.001831,0.004120
0.005900,0.013947,0.003052,-0.003510
0.005950,0.013968,0.008545,0.004883
0.006000,0.011113,-0.005493,-0.005798
0.006050,0.004873,0.015259,-0.033264
0.006100,-0.004463,0.025024,-0.052338
0.006150,-0.018382,0.010376,-0.044098
0.006200,-0.036847,0.012817,-0.061493
0.006250,-0.056872,0.012207,-0.058594
0.006300,-0.075446,-0.006714,-0.063782
0.006350,-0.089837,-0.008545,-0.037842
0.006400,-0.095525,-0.015259,-0.038147
0.006450,-0.086869,-0.029297,-0.006714
0.006500,-0.059557,-0.053711,0.041962
0.006550,-0.010371,-0.068970,0.121765
0.006600,0.062022,-0.070190,0.163422
0.006650,0.157214,-0.079346,0.238953
0.006700,0.271708,-0.057983,0.293121
0.006750,0.399230,-0.026855,0.343018
0.006800,0.531824,0.041504,0.331726
0.006850,0.659814,0.083008,0.253906
0.006900,0.773992,0.191650,0.231171
0.006950,0.864588,0.291748,0.140533
0.007000,0.924104,0.409546,0.023651
0.007050,0.948648,0.521851,-0.116272
0.007100,0.935273,0.655518,-0.278320
0.007150,0.885028,0.745850,-0.389862
0.007200,0.802657,0.816650,-0.495605
0.007250,0.695275,0.864868,-0.563202
0.007300,0.572248,0.885620,-0.568390
0.007350,0.442975,0.874023,-0.511475
0.007400,0.316290,0.813599,-0.414276
0.007450,0.199205,0.745239,-0.322571
0.007500,0.098015,0.640259,-0.186615
0.007550,0.018662,0.527954,-0.029449
0.007600,-0.037612,0.419922,0.094452
0.007650,-0.072904,0.302734,0.160675
0.007700,-0.089669,0.186157,0.242615
0.007750,-0.092129,0.105591,0.323486
0.007800,-0.084416,0.023804,0.313568
0.007850,-0.069828,-0.029297,0.284119
0.007900,-0.052040,-0.062866,0.219269
0.007950,-0.034363,-0.076904,0.169373
0.008000,-0.019301,-0.084229,0.121918
0.008050,-0.007959,-0.073853,0.048828
0.008100,-0.000260,-0.050049,-0.018311
0.008150,0.004196,-0.026245,-0.046234
0.008200,0.005943,-0.017700,-0.077209
0.008250,0.006182,-0.019531,-0.048676
0.008300,0.005875,0.005493,-0.067749
0.008350,0.004377,0.009766,-0.062103
0.008400,0.001775,0.023193,-0.068359
0.008450,-0.000411,0.008545,-0.038757
0.008500,-0.001469,-0.002441,-0.035095
0.008550,-0.001730,0.003662,0.005035
0.008600,-0.001555,0.021362,-0.002594
0.008650,-0.001243,0.006104,-0.008392
0.008700,-0.001387,0.005493,-0.023804
0.008750,-0.001575,-0.004883,0.006866
0.008800,-0.001921,-0.000610,0.002594
0.008850,-0.003367,-0.001831,-0.006104
0.008900,-0.003727,-0.000610,-0.010681
0.008950,-0.002473,0.008545,-0.021820
0.009000,-0.002093,-0.007935,-0.021210
0.009050,-0.001996,0.004272,-0.034943
0.009100,-0.001769,-0.003662,-0.041809
0.009150,-0.002194,-0.006104,0.005951
0.009200,-0.002657,0.002441,-0.029144
0.009250,-0.002443,-0.001221,-0.027771
0.009300,-0.001548,-0.007935,-0.026703
0.009350,-0.000814,-0.019531,-0.007172
0.009400,-0.000875,-0.003662,-0.017090
0.009450,-0.000981,-0.010986,-0.004272
0.009500,-0.000183,0.012207,-0.019073
0.009550,0.000620,-0.001831,-0.010529
0.009600,0.000168,0.004272,-0.007019
0.009650,-0.000866,0.023804,-0.031586
0.009700,-0.001655,0.004883,-0.030365
0.009750,-0.001989,0.003052,-0.016632
0.009800,-0.001919,-0.002441,-0.017090
0.009850,-0.001838,0.011597,-0.013428
0.009900,-0.001566,0.010986,-0.006104
0.009950,-0.001141,-0.006104,-0.004883
0.010000,-0.000895,0.010986,-0.005035
0.010050,-0.000655,0.007324,-0.030212
0.010100,-0.000160,-0.003662,-0.040741
0.010150,0.000006,-0.004883,0.007019
0.010200,-0.000180,0.007324,-0.016479
0.010250,-0.000092,-0.001831,-0.012512
0.010300,-0.000353,0.002441,-0.000305
0.010350,-0.000763,0.007935,-0.001678
0.010400,-0.000579,0.015869,-0.010223
0.010450,-0.000555,0.003052,-0.004730
0.010500,-0.000961,0.006714,-0.018005
0.010550,-0.001091,0.000610,-0.011902
0.010600,-0.001459,-0.001221,0.005035
0.010650,-0.001861,0.007324,-0.033722
0.010700,-0.001578,0.011597,-0.019379
0.010750,-0.001489,0.002441,-0.028992
0.010800,-0.001012,-0.001221,-0.027466
0.010850,-0.000416,0.003052,0.001221
0.010900,-0.000709,-0.011597,-0.009918
0.010950,-0.000761,-0.014038,-0.008850
0.011000,-0.000695,0.006104,-0.030212
0.011050,-0.000994,0.012817,-0.019379
0.011100,-0.001212,0.001221,-0.012054
0.011150,-0.001048,0.003052,-0.004578
0.011200,-0.000465,0.009766,-0.022125
0.011250,0.000291,0.001221,-0.004425
0.011300,0.000391,-0.000610,0.000610
0.011350,-0.000418,0.007324,-0.000458
0.011400,-0.001193,0.008545,0.016785
0.011450,-0.001687,-0.007935,0.002441
0.011500,-0.001902,0.000610,-0.015717
0.011550,-0.001475,0.002441,-0.010834
0.011600,-0.000934,-0.001221,-0.015259
0.011650,-0.001078,-0.004883,0.018768
0.011700,-0.001443,-0.001221,-0.013275
0.011750,-0.001399,0.006104,-0.009766
0.011800,-0.000918,0.001221,-0.018311
0.011850,-0.000131,0.000610,-0.010376
0.011900,-0.000141,0.008545,0.005646
0.011950,-0.001224,0.003052,-0.017853
0.012000,-0.001588,0.003052,-0.002747
0.012050,-0.001066,0.004883,-0.030975
0.012100,-0.001357,-0.004883,-0.020447
0.012150,-0.001992,0.006714,-0.035706
0.012200,-0.001152,-0.004883,-0.026550
0.012250,0.000007,-0.003662,-0.017853
0.012300,0.000018,0.000610,-0.003662
0.012350,0.000000,0.007324,-0.003052
0.012400,0.000290,0.009155,-0.014343
0.012450,0.000209,0.004883,0.000000
0.012500,0.000256,0.000610,-0.011444
0.012550,0.001186,-0.003052,-0.009766
0.012600,0.002229,0.001831,0.006866
0.012650,0.002124,-0.009766,-0.026550
0.012700,0.001410,0.015869,-0.012360
0.012750,0.000761,0.001831,-0.014648
0.012800,0.000135,0.007324,-0.019531
0.012850,-0.000370,0.007324,-0.023041
0.012900,-0.001076,0.007935,-0.014191
0.012950,-0.001529,0.007935,-0.016785
0.013000,-0.001093,0.007935,0.005646
0.013050,-0.000682,0.013428,-0.009308
0.013100,-0.000995,0.006714,0.020142
0.013150,-0.001545,0.011597,-0.001068
0.013200,-0.001888,0.007935,0.012207
0.013250,-0.001421,0.012207,-0.009613
0.013300,-0.000840,0.003052,-0.003357
0.013350,-0.001033,-0.001221,-0.018158
0.013400,-0.001740,0.002441,0.001068
0.013450,-0.002309,-0.011597,0.014191
0.013500,-0.001640,-0.013428,-0.013885
0.013550,-0.000495,0.007324,-0.020447
0.013600,-0.000291,-0.001221,-0.010376
0.013650,-0.000396,0.002441,-0.003510
0.013700,0.000301,-0.000610,0.001678
0.013750,0.000995,-0.005493,-0.012970
0.013800,0.001006,0.012817,-0.008240
0.013850,0.000958,0.009766,-0.015564
0.013900,0.000878,-0.003662,-0.019226
0.013950,0.000546,0.001221,-0.008850
0.014000,0.000297,0.002441,-0.027161
0.014050,0.000485,0.003052,-0.008698
0.014100,0.000801,0.000000,-0.004120
0.014150,0.000723,0.013428,-0.009613
0.014200,0.000316,0.013428,-0.014954
0.014250,-0.000088,0.007935,-0.001221
0.014300,0.000362,0.003052,-0.015106
0.014350,0.002117,-0.000610,-0.019379
0.014400,0.003888,0.005493,0.005493
0.014450,0.004929,0.000000,-0.024719
0.014500,0.004884,0.009155,-0.013733
0.014550,0.003647,0.000610,-0.002899
0.014600,0.002063,0.012207,-0.010376
