t [s],u [deg],y [deg],i [A]
0.000000,0.000573,0.006714,-0.010223
0.000050,0.001021,-0.004883,-0.013428
0.000100,0.001320,0.004883,-0.003510
0.000150,0.001394,0.000000,-0.013123
0.000200,0.001049,-0.001831,0.000153
0.000250,0.000734,0.006104,0.014191
0.000300,0.000711,0.009155,-0.009155
0.000350,0.000345,0.001831,-0.013123
0.000400,-0.000177,0.003052,-0.008545
0.000450,0.000359,-0.003052,-0.010834
0.000500,0.000874,-0.001221,-0.015717
0.000550,-0.000154,0.007324,0.001068
0.000600,-0.001059,0.003052,-0.023651
0.000650,-0.000130,-0.003052,-0.016785
0.000700,0.001433,-0.006714,-0.005188
0.000750,0.002091,0.000000,-0.012207
0.000800,0.002156,0.000610,-0.018005
0.000850,0.001148,-0.002441,-0.025024
0.000900,-0.000432,0.004883,-0.012207
0.000950,-0.001073,0.006104,-0.017395
0.001000,-0.001299,0.006104,-0.012970
0.001050,-0.001213,0.001221,-0.023956
0.001100,-0.001136,0.009155,-0.004120
0.001150,-0.001148,0.000000,0.009155
0.001200,-0.000797,0.001831,0.003510
0.001250,-0.000251,0.006714,-0.009918
0.001300,0.000687,0.003052,-0.019989
0.001350,0.001431,0.001221,-0.019226
0.001400,0.001250,0.007935,-0.005341
0.001450,0.000740,0.004272,-0.002594
0.001500,0.000515,0.001831,-0.002136
0.001550,0.000391,0.001831,-0.029602
0.001600,0.000577,0.000000,-0.022583
0.001650,0.000837,0.004883,-0.016632
0.001700,0.000627,0.001221,-0.031128
0.001750,0.000398,0.000610,-0.025024
0.001800,0.000351,-0.002441,-0.001068
0.001850,-0.000185,0.001221,-0.018768
0.001900,-0.000578,0.006104,-0.043335
0.001950,-0.000373,0.002441,0.024872
0.002000,-0.000664,0.003662,0.002899
0.002050,-0.000708,-0.003662,-0.021667
0.002100,0.000107,0.009766,-0.057831
0.002150,0.000771,-0.004272,0.017700
0.002200,0.001071,-0.007324,-0.002594
0.002250,0.000947,-0.013428,0.003204
0.002300,0.000740,0.001221,-0.003662
0.002350,0.001034,0.007324,-0.038757
0.002400,0.001129,0.008545,-0.007782
0.002450,0.001001,0.013428,-0.022125
0.002500,0.000837,-0.007935,-0.016327
0.002550,0.000232,-0.011597,-0.003357
0.002600,-0.000404,0.007324,-0.018311
0.002650,-0.000613,0.001221,-0.018463
0.002700,-0.001214,-0.005493,-0.004120
0.002750,-0.002495,0.001831,-0.011749
0.002800,-0.002965,0.010376,-0.026245
0.002850,-0.002721,0.001221,0.012054
0.002900,-0.002305,0.005493,-0.007324
0.002950,-0.001612,-0.015259,-0.009460
0.003000,-0.001352,-0.008545,0.004578
0.003050,-0.001636,-0.001831,-0.015717
0.003100,-0.001888,-0.009155,0.004120
0.003150,-0.001764,0.014038,-0.055237
0.003200,-0.001308,-0.002441,-0.029144
0.003250,-0.000745,0.001831,-0.044556
0.003300,-0.000333,0.001221,-0.023804
0.003350,-0.000012,0.010986,-0.013885
0.003400,0.000138,-0.005493,-0.017700
0.003450,-0.000115,0.004272,0.004730
0.003500,0.000047,-0.002441,-0.007172
0.003550,0.000701,-0.011597,-0.016327
0.003600,0.000799,-0.000610,-0.002747
0.003650,0.000565,0.006714,-0.023346
0.003700,0.000484,0.001831,-0.012970
0.003750,0.000289,0.015869,-0.007324
0.003800,0.000223,0.017090,-0.025940
0.003850,0.000545,-0.000610,0.020905
0.003900,0.000133,-0.002441,0.003662
0.003950,-0.001164,-0.012817,-0.015564
0.004000,-0.001803,-0.004883,0.005646
0.004050,-0.001585,0.016479,-0.014038
0.004100,-0.001048,0.004272,-0.021973
0.004150,-0.000237,-0.004272,0.016022
0.004200,0.000609,-0.004883,0.006866
0.004250,0.000969,0.009155,0.005951
0.004300,0.000469,0.000000,-0.004425
0.004350,-0.000070,-0.003052,-0.027618
0.004400,-0.000154,-0.004272,-0.019073
0.004450,-0.000808,0.008545,-0.013733
0.004500,-0.001573,0.001221,-0.009003
0.004550,-0.001370,-0.005493,-0.004730
0.004600,-0.000744,0.010986,-0.019836
0.004650,-0.000648,0.011597,-0.000916
0.004700,-0.001052,0.005493,-0.011749
0.004750,-0.001623,0.000000,-0.032806
0.004800,-0.002038,0.010986,-0.014343
0.004850,-0.001415,-0.016479,0.010071
0.004900,-0.000084,-0.000610,0.002899
0.004950,0.000629,0.008545,-0.016937
0.005000,0.000749,-0.012817,0.011139
0.005050,0.001383,0.000000,-0.019379
0.005100,0.001474,-0.001831,0.006561
0.005150,-0.000136,-0.002441,-0.016785
0.005200,-0.001422,0.004272,-0.006714
0.005250,-0.002245,-0.002441,-0.017090
0.005300,-0.003679,-0.014648,-0.027161
0.005350,-0.004096,-0.008545,-0.027161
0.005400,-0.002909,0.012207,-0.010834
0.005450,-0.001075,-0.001221,-0.003967
0.005500,-0.000000,0.009155,-0.021515
0.005550,-0.000280,0.006714,-0.001526
0.005600,-0.000703,0.002441,-0.014496
0.005650,-0.000327,0.001831,0.007629
0.005700,0.001537,0.006714,-0.030670
0.005750,0.004873,0.005493,-0.007935
0.005800,0.008313,-0.003052,0.018463
0.005850,0.011590,-0.010986,0.010834
0.005900,0.014595,0.002441,-0.023804
0.005950,0.014753,0.001831,0.003204
0.006000,0.011457,0.005493,-0.003815
0.006050,0.005205,0.009766,-0.003357
0.006100,-0.005512,0.009766,-0.058746
0.006150,-0.021321,0.013428,-0.044861
0.006200,-0.040538,0.009766,-0.057831
0.006250,-0.060418,0.015869,-0.088654
0.006300,-0.079148,0.000610,-0.062866
0.006350,-0.093219,-0.006714,-0.072174
0.006400,-0.097813,-0.026855,-0.025024
0.006450,-0.088114,-0.047607,0.013428
0.006500,-0.059500,-0.062866,0.067291
0.006550,-0.009582,-0.067749,0.104065
0.006600,0.063055,-0.073242,0.181885
0.006650,0.157883,-0.081787,0.233765
0.006700,0.271388,-0.067749,0.278778
0.006750,0.398423,-0.033569,0.340424
0.006800,0.530891,0.037231,0.321198
0.006850,0.658871,0.097046,0.282593
0.006900,0.772926,0.179443,0.246429
0.006950,0.863546,0.294189,0.129547
0.007000,0.923262,0.415039,0.020142
0.007050,0.947447,0.522461,-0.110168
0.007100,0.933887,0.653687,-0.267334
0.007150,0.883834,0.743408,-0.374756
0.007200,0.802333,0.817261,-0.496216
0.007250,0.696652,0.871582,-0.565948
0.007300,0.574696,0.903320,-0.559845
0.007350,0.445017,0.884399,-0.487213
0.007400,0.316763,0.828247,-0.403900
0.007450,0.199395,0.759888,-0.326691
0.007500,0.099747,0.659180,-0.181580
0.007550,0.020451,0.541992,-0.062866
0.007600,-0.037330,0.424194,0.099182
0.007650,-0.073835,0.319214,0.200195
0.007700,-0.091565,0.191650,0.269470
0.007750,-0.093682,0.093384,0.281830
0.007800,-0.084301,0.021973,0.311432
0.007850,-0.068224,-0.029297,0.302124
0.007900,-0.050234,-0.065308,0.230408
0.007950,-0.033457,-0.071411,0.189362
0.008000,-0.018840,-0.079346,0.099182
0.008050,-0.007669,-0.064087,0.059357
0.008100,-0.000433,-0.054321,-0.014343
0.008150,0.003798,-0.043335,-0.053711
0.008200,0.006053,-0.021973,-0.073395
0.008250,0.006632,-0.004883,-0.070190
0.008300,0.005724,0.001221,-0.059204
0.008350,0.004439,0.012817,-0.057983
0.008400,0.003083,0.019531,-0.041809
0.008450,0.001524,0.005493,-0.027924
0.008500,0.000472,0.005493,-0.030975
0.008550,-0.000303,0.002441,-0.006256
0.008600,-0.001459,-0.006714,-0.016937
0.008650,-0.002287,-0.004272,-0.001373
0.008700,-0.002436,0.014038,-0.027924
0.008750,-0.002393,0.000610,-0.000153
0.008800,-0.002356,-0.002441,0.010986
0.008850,-0.002201,0.008545,0.002594
0.008900,-0.002362,0.007324,-0.012207
0.008950,-0.002745,0.003662,-0.005493
0.009000,-0.002552,0.007935,-0.000610
0.009050,-0.001779,0.005493,-0.001526
0.009100,-0.000464,0.006714,-0.011902
0.009150,0.000430,0.014648,-0.011902
0.009200,0.000512,-0.000610,0.005646
0.009250,0.000362,0.000610,-0.005341
0.009300,-0.000127,-0.001831,0.004578
0.009350,-0.000511,-0.001221,-0.009003
0.009400,-0.000763,0.006104,-0.005951
0.009450,-0.001252,0.003662,-0.025482
0.009500,-0.001449,0.007935,-0.004883
0.009550,-0.001192,-0.003662,-0.013275
0.009600,-0.001313,0.013428,-0.019836
0.009650,-0.001727,0.003662,-0.015717
0.009700,-0.001824,0.006104,-0.038147
0.009750,-0.002191,-0.005493,-0.001373
0.009800,-0.002504,-0.010376,-0.010071
0.009850,-0.002072,0.004883,-0.011749
0.009900,-0.001961,-0.003052,-0.034332
0.009950,-0.002442,0.006104,-0.024261
0.010000,-0.001994,-0.007324,0.003662
0.010050,-0.000300,0.005493,-0.024109
0.010100,0.001024,0.006104,-0.004578
0.010150,0.001055,0.009766,-0.008698
0.010200,0.000566,-0.001831,0.004883
0.010250,0.000529,0.005493,-0.032806
0.010300,0.000779,0.009766,-0.065613
0.010350,0.000974,-0.003662,0.006409
0.010400,0.001059,-0.014038,0.007935
0.010450,0.000945,0.017700,-0.038605
0.010500,0.001170,0.012207,-0.023956
0.010550,0.001210,0.005493,-0.010376
0.010600,0.000360,0.007935,-0.020294
0.010650,-0.000598,-0.003662,-0.014191
0.010700,-0.001073,0.009155,-0.001373
0.010750,-0.000529,0.011597,-0.031281
0.010800,0.000189,0.020752,-0.016937
0.010850,-0.000147,0.011597,-0.033264
0.010900,-0.000433,0.021362,-0.011292
0.010950,-0.000041,-0.009155,0.003662
0.011000,0.000222,0.009766,-0.025330
0.011050,0.000144,0.003662,-0.005341
0.011100,-0.000116,-0.002441,-0.002136
0.011150,-0.000734,-0.000610,0.004425
0.011200,-0.001419,0.000000,-0.017090
0.011250,-0.001828,0.010376,-0.019073
0.011300,-0.002132,0.000000,0.007324
0.011350,-0.002056,0.001221,0.009460
0.011400,-0.001354,0.003052,-0.005188
0.011450,-0.000645,-0.001221,-0.001373
0.011500,-0.000587,-0.009155,0.022583
0.011550,-0.001094,0.002441,-0.038300
0.011600,-0.001653,-0.000610,-0.027008
0.011650,-0.001842,-0.004272,-0.004272
0.011700,-0.001436,-0.000610,-0.030212
0.011750,-0.000758,-0.001221,-0.018158
0.011800,-0.000181,0.001831,-0.009308
0.011850,0.000892,0.007935,0.000305
0.011900,0.002105,0.001831,-0.002899
0.011950,0.002047,-0.006714,0.020447
0.012000,0.001316,0.002441,-0.020447
0.012050,0.000720,-0.006714,-0.017700
0.012100,0.000220,0.004272,-0.019836
0.012150,0.000369,0.006714,-0.039520
0.012200,0.000748,0.001221,-0.013733
0.012250,0.000602,0.000610,-0.019073
0.012300,0.000766,0.007324,0.003662
0.012350,0.001226,0.005493,-0.028229
0.012400,0.001399,0.010986,-0.023041
0.012450,0.001805,0.006104,-0.001678
0.012500,0.000979,-0.001831,-0.017242
0.012550,-0.000950,-0.003662,0.006561
0.012600,-0.001691,0.003052,-0.021210
0.012650,-0.001592,0.001831,-0.034485
0.012700,-0.000925,0.010376,-0.008850
0.012750,-0.000171,0.006104,0.003510
0.012800,-0.000220,0.009766,-0.023956
0.012850,-0.000698,0.004272,-0.016479
0.012900,-0.000696,-0.000610,-0.020599
0.012950,0.000413,0.005493,-0.015564
0.013000,0.000935,0.011597,0.007172
0.013050,-0.000584,0.002441,-0.008545
0.013100,-0.002002,0.001221,-0.005646
0.013150,-0.001974,0.003052,-0.031586
0.013200,-0.001966,0.006104,-0.019684
0.013250,-0.001684,0.005493,-0.000153
0.013300,-0.000997,0.001221,0.013428
0.013350,-0.000837,0.000610,-0.002899
0.013400,-0.000765,0.004883,-0.030975
0.013450,-0.000236,-0.005493,-0.009918
0.013500,0.000254,0.012817,-0.013733
0.013550,0.000282,-0.005493,-0.009918
0.013600,0.000266,-0.004883,-0.012665
0.013650,-0.000402,0.008545,-0.032501
0.013700,-0.000776,0.000610,-0.025482
0.013750,0.000441,-0.003052,-0.030975
0.013800,0.001562,-0.004272,-0.004425
0.013850,0.001125,0.004883,0.010376
0.013900,0.000238,-0.006104,-0.003357
0.013950,0.000037,0.000610,-0.015106
0.014000,-0.000268,0.001831,-0.024261
0.014050,-0.001437,0.000610,-0.023346
0.014100,-0.002844,0.006104,0.003204
0.014150,-0.002625,-0.001831,-0.013123
0.014200,-0.001428,0.009155,0.002289
0.014250,-0.000889,0.004883,-0.006714
0.014300,-0.000195,-0.003052,-0.001984
0.014350,0.000821,0.004883,0.009460
0.014400,0.001677,-0.008545,-0.007782
0.014450,0.002077,-0.000610,-0.009155
0.014500,0.002541,-0.010986,-0.003662
0.014550,0.003114,-0.005493,-0.032196
0.014600,0.002180,0.001221,-0.011749
