t [s],u [deg],y [deg],i [A]
0.000000,-0.001073,0.010986,-0.032196
0.000050,-0.001053,0.010376,-0.017548
0.000100,-0.000235,0.000610,-0.014801
0.000150,0.000039,-0.004272,-0.001678
0.000200,-0.000047,-0.004883,0.001984
0.000250,0.000610,-0.002441,-0.010529
0.000300,0.001501,-0.003662,-0.012054
0.000350,0.001307,0.009766,-0.002899
0.000400,0.000463,-0.003052,-0.012817
0.000450,-0.000393,0.004272,-0.009766
0.000500,-0.001235,-0.004883,-0.007935
0.000550,-0.001013,0.018921,-0.009918
0.000600,-0.000153,-0.009155,-0.027313
0.000650,0.000435,-0.001831,-0.009918
0.000700,0.000890,0.001831,0.007324
0.000750,0.001299,0.002441,-0.015564
0.000800,0.001702,-0.006104,-0.014191
0.000850,0.001585,0.009155,-0.010223
0.000900,0.001150,0.002441,-0.014801
0.000950,0.001040,0.002441,-0.006256
0.001000,0.000974,0.008545,-0.022278
0.001050,0.000431,0.007935,-0.004120
0.001100,-0.000288,0.007935,-0.021515
0.001150,-0.000446,-0.001831,-0.015564
0.001200,0.000274,0.010376,-0.014191
0.001250,0.001353,-0.004272,-0.006866
0.001300,0.001403,0.003052,0.004425
0.001350,0.000486,-0.001831,-0.021210
0.001400,0.000507,0.006104,0.001984
0.001450,0.001170,-0.007324,-0.024872
0.001500,0.000611,-0.004272,0.009460
0.001550,-0.000671,0.002441,-0.007782
0.001600,-0.001051,0.001221,-0.017395
0.001650,-0.000755,0.010986,-0.025635
0.001700,-0.000456,0.012817,-0.018158
0.001750,-0.000011,0.009766,0.010986
0.001800,-0.000158,-0.004883,0.013275
0.001850,-0.000852,-0.000610,-0.002747
0.001900,-0.001377,-0.002441,-0.008545
0.001950,-0.001387,0.001221,-0.001373
0.002000,-0.000926,-0.000610,-0.001068
0.002050,-0.000703,0.007324,-0.012054
0.002100,-0.000531,-0.009155,-0.000610
0.002150,-0.000126,-0.004272,-0.016479
0.002200,0.000529,0.000610,-0.016022
0.002250,0.001092,-0.004883,-0.003815
0.002300,0.001080,0.006714,-0.020905
0.002350,0.000396,0.012817,-0.013580
0.002400,-0.000640,0.003052,-0.024414
0.002450,-0.000946,0.006104,-0.014496
0.002500,-0.000421,-0.003052,-0.018158
0.002550,0.000163,0.001831,-0.003815
0.002600,0.000201,-0.006714,0.006409
0.002650,0.000041,0.005493,-0.025482
0.002700,0.000388,-0.007324,-0.015106
0.002750,0.000015,0.000000,-0.009613
0.002800,-0.000758,0.004883,-0.007935
0.002850,-0.000646,0.010986,-0.007324
0.002900,-0.000442,-0.003662,0.007477
0.002950,-0.000544,-0.001831,0.009918
0.003000,-0.000886,0.014038,-0.008698
0.003050,-0.001228,0.010376,-0.018158
0.003100,-0.001025,0.000610,-0.032806
0.003150,-0.000668,-0.003662,-0.006714
0.003200,-0.001002,0.005493,-0.020294
0.003250,-0.001215,-0.003052,0.005188
0.003300,-0.000923,-0.000610,-0.002747
0.003350,-0.000922,-0.003052,-0.026703
0.003400,-0.001044,0.007324,0.006714
0.003450,-0.001270,-0.004883,-0.004272
0.003500,-0.001627,-0.000610,0.006409
0.003550,-0.001664,-0.003662,0.001984
0.003600,-0.001336,0.000000,-0.009155
0.003650,-0.000662,0.001831,-0.000305
0.003700,0.000462,-0.001831,-0.001831
0.003750,0.000879,0.000610,-0.001373
0.003800,0.000022,-0.007935,0.005188
0.003850,-0.000397,0.001221,0.000458
0.003900,-0.000238,-0.001831,0.001984
0.003950,-0.000433,0.007935,-0.001831
0.004000,-0.000305,-0.003662,-0.003662
0.004050,0.000283,0.004883,0.000305
0.004100,0.000603,0.008545,-0.004578
0.004150,0.000914,0.008545,-0.021515
0.004200,0.001189,-0.014648,-0.013580
0.004250,0.001124,0.009155,0.000000
0.004300,0.001163,-0.004272,0.010376
0.004350,0.000928,-0.010986,-0.015106
0.004400,0.000315,-0.003052,-0.019836
0.004450,-0.000396,0.003052,-0.008698
0.004500,-0.000753,0.008545,-0.012970
0.004550,-0.000514,-0.000610,-0.026703
0.004600,-0.000801,-0.010986,0.000916
0.004650,-0.001428,0.011597,0.005798
0.004700,-0.001591,0.005493,-0.017395
0.004750,-0.001839,-0.002441,-0.003357
0.004800,-0.002247,0.013428,0.004578
0.004850,-0.002172,0.012817,-0.015717
0.004900,-0.001701,-0.001831,-0.038757
0.004950,-0.001137,-0.009766,-0.001678
0.005000,-0.000694,-0.003662,-0.003815
0.005050,-0.000732,-0.007935,0.010834
0.005100,-0.000612,0.007935,-0.000610
0.005150,-0.000393,-0.003052,-0.027466
0.005200,-0.000446,0.002441,-0.000610
0.005250,-0.000393,-0.014038,0.012665
0.005300,-0.001044,0.004883,-0.025024
0.005350,-0.001364,0.007935,-0.011139
0.005400,-0.000380,0.001831,-0.013733
0.005450,0.000238,0.010986,0.001373
0.005500,-0.000043,-0.001221,0.019836
0.005550,-0.000421,0.007324,-0.030518
0.005600,0.000182,-0.009155,-0.034180
0.005650,0.001591,-0.002441,-0.002289
0.005700,0.003590,0.000000,0.001373
0.005750,0.006598,0.002441,0.000916
0.005800,0.009686,0.000000,0.000610
0.005850,0.011988,-0.003662,0.017700
0.005900,0.013926,0.020752,-0.014496
0.005950,0.014460,0.009155,-0.010986
0.006000,0.011250,0.025024,-0.018921
0.006050,0.003816,0.008545,0.014191
0.006100,-0.007378,0.010376,-0.009613
0.006150,-0.021872,0.019531,-0.073242
0.006200,-0.039019,0.007935,-0.078583
0.006250,-0.057584,0.015259,-0.059204
0.006300,-0.075897,-0.007324,-0.080414
0.006350,-0.090786,-0.010376,-0.026245
0.006400,-0.096571,-0.044556,-0.022583
0.006450,-0.087803,-0.037842,-0.015411
0.006500,-0.060078,-0.057373,0.038300
0.006550,-0.010435,-0.062256,0.098724
0.006600,0.062155,-0.068359,0.171814
0.006650,0.157137,-0.073242,0.254364
0.006700,0.271594,-0.057373,0.298615
0.006750,0.399209,-0.028687,0.349121
0.006800,0.530994,0.025635,0.332031
0.006850,0.658374,0.100708,0.272980
0.006900,0.772841,0.178833,0.234528
0.006950,0.864328,0.291748,0.111542
0.007000,0.924009,0.413208,-0.005646
0.007050,0.948064,0.528564,-0.123596
0.007100,0.934927,0.645752,-0.279236
0.007150,0.884605,0.742798,-0.388641
0.007200,0.802241,0.818481,-0.464935
0.007250,0.695443,0.870361,-0.564117
0.007300,0.572296,0.899048,-0.566101
0.007350,0.442407,0.875854,-0.510559
0.007400,0.315209,0.833740,-0.407562
0.007450,0.198474,0.739136,-0.297546
0.007500,0.098136,0.644531,-0.202942
0.007550,0.018412,0.524902,-0.084381
0.007600,-0.038570,0.415039,0.071564
0.007650,-0.074076,0.292358,0.175476
0.007700,-0.090961,0.192871,0.260315
0.007750,-0.092812,0.094604,0.284271
0.007800,-0.084154,0.019531,0.266418
0.007850,-0.069384,-0.032349,0.266266
0.007900,-0.052418,-0.059204,0.228271
0.007950,-0.035807,-0.078125,0.166321
0.008000,-0.020588,-0.073853,0.082855
0.008050,-0.008038,-0.056152,0.056458
0.008100,0.000173,-0.057983,-0.007629
0.008150,0.004701,-0.036621,-0.048676
0.008200,0.006946,-0.019531,-0.062408
0.008250,0.007126,0.001221,-0.090637
0.008300,0.005897,-0.000610,-0.070038
0.008350,0.004283,0.006104,-0.046234
0.008400,0.002152,0.014648,-0.045319
0.008450,-0.000367,0.019531,-0.039368
0.008500,-0.002055,0.008545,-0.020447
0.008550,-0.002466,0.010986,-0.026398
0.008600,-0.001852,0.013428,-0.028381
0.008650,-0.001060,0.002441,-0.029144
0.008700,-0.000326,-0.009155,0.004425
0.008750,-0.000570,0.001221,-0.002594
0.008800,-0.002309,0.010376,-0.017395
0.008850,-0.003425,0.006714,-0.018311
0.008900,-0.002956,0.007324,-0.019226
0.008950,-0.002209,0.003052,-0.018158
0.009000,-0.001845,-0.002441,0.007019
0.009050,-0.001675,-0.012207,-0.008850
0.009100,-0.001742,0.014648,-0.002441
0.009150,-0.001639,-0.003052,-0.002441
0.009200,-0.001774,0.000610,-0.012207
0.009250,-0.002092,-0.003052,-0.002747
0.009300,-0.002077,-0.004272,-0.011597
0.009350,-0.001289,0.002441,-0.000610
0.009400,0.000029,0.003662,-0.023651
0.009450,0.000505,0.004272,-0.028229
0.009500,0.000813,-0.003662,-0.022888
0.009550,0.001390,0.010986,-0.013428
0.009600,0.001293,0.000000,-0.036621
0.009650,0.000416,-0.001831,-0.023804
0.009700,-0.000449,-0.000610,-0.025940
0.009750,-0.001015,0.007324,-0.023346
0.009800,-0.001133,-0.001831,-0.010681
0.009850,-0.000300,0.003662,-0.011597
0.009900,0.000122,0.001221,-0.025787
0.009950,-0.000404,0.012817,-0.000763
0.010000,-0.000792,-0.007324,0.006104
0.010050,-0.001120,-0.004883,-0.013123
0.010100,-0.001261,0.004272,-0.000153
0.010150,-0.001073,-0.002441,-0.008850
0.010200,-0.000700,0.004883,-0.021667
0.010250,-0.000421,0.006104,-0.006714
0.010300,-0.000539,0.012817,-0.009003
0.010350,-0.000738,-0.003052,-0.025635
0.010400,-0.000872,-0.002441,-0.003510
0.010450,-0.000612,0.003662,-0.011597
0.010500,0.000354,0.000000,-0.020905
0.010550,0.001001,0.012817,-0.020905
0.010600,0.000451,-0.002441,-0.002594
0.010650,-0.000166,0.004272,-0.003662
0.010700,-0.000142,0.000610,-0.004425
0.010750,-0.000530,-0.003052,-0.013123
0.010800,-0.001488,0.001221,-0.032196
0.010850,-0.001712,0.000000,0.003662
0.010900,-0.001191,0.003662,0.000153
0.010950,-0.000719,0.000610,-0.023651
0.011000,-0.000213,-0.000610,-0.007782
0.011050,0.000326,0.006714,-0.008392
0.011100,0.000589,0.003052,-0.018005
0.011150,0.000681,0.012817,-0.009918
0.011200,0.000861,0.001221,-0.022888
0.011250,0.001046,-0.006104,-0.034943
0.011300,0.001033,0.011597,-0.020294
0.011350,0.000020,0.009766,-0.001984
0.011400,-0.001428,0.003052,0.003967
0.011450,-0.001594,0.007935,-0.014191
0.011500,-0.001317,-0.003052,-0.022888
0.011550,-0.001182,0.001831,-0.018005
0.011600,-0.000654,-0.000610,-0.002441
0.011650,-0.000843,0.011597,-0.002136
0.011700,-0.001604,0.008545,-0.002594
0.011750,-0.001552,0.003052,-0.005951
0.011800,-0.000797,-0.008545,-0.014191
0.011850,-0.000451,-0.010376,-0.003815
0.011900,-0.000087,0.006104,-0.005798
0.011950,0.000805,0.003662,-0.009003
0.012000,0.000809,0.005493,-0.019073
0.012050,0.000203,0.011597,-0.013733
0.012100,-0.000136,0.000610,-0.024567
0.012150,-0.000061,0.000610,0.016632
0.012200,0.000150,0.003052,-0.032349
0.012250,0.000181,-0.006104,-0.008698
0.012300,0.000737,-0.001831,0.002899
0.012350,0.001218,0.004272,-0.004120
0.012400,0.001014,0.000000,-0.014648
0.012450,0.000846,-0.009766,0.003052
0.012500,0.000971,0.005493,-0.000916
0.012550,0.000723,0.009155,-0.015869
0.012600,0.000105,0.007324,-0.017090
0.012650,-0.000117,0.005493,-0.015564
0.012700,0.000274,-0.003052,-0.015411
0.012750,0.000122,0.008545,-0.016632
0.012800,-0.001062,0.003662,-0.014496
0.012850,-0.002070,0.000610,-0.014343
0.012900,-0.002275,0.013428,-0.012054
0.012950,-0.001790,-0.008545,-0.002441
0.013000,-0.001420,-0.003052,-0.004120
0.013050,-0.001544,-0.000610,-0.016785
0.013100,-0.001773,0.001831,-0.010681
0.013150,-0.001574,-0.003662,-0.028229
0.013200,-0.001220,-0.007935,-0.017548
0.013250,-0.000887,0.004272,-0.003052
0.013300,-0.000223,0.005493,0.013885
0.013350,-0.000444,0.012207,0.013580
0.013400,-0.001590,0.007935,-0.014801
0.013450,-0.001709,0.006104,0.008087
0.013500,-0.001439,0.010376,0.000153
0.013550,-0.001764,0.020142,0.000916
0.013600,-0.001156,0.012207,-0.011902
0.013650,-0.000090,0.006104,0.006866
0.013700,0.000342,0.000000,0.002289
0.013750,0.001024,0.001221,-0.014496
0.013800,0.001632,-0.009155,-0.022278
0.013850,0.001390,-0.006104,-0.004425
0.013900,0.000585,0.001221,0.007019
0.013950,-0.000364,-0.002441,-0.038300
0.014000,-0.000609,0.001221,-0.016022
0.014050,0.000090,0.001221,-0.030060
0.014100,0.000658,0.008545,-0.016479
0.014150,0.000423,0.000610,-0.010071
0.014200,-0.000394,0.000000,0.005188
0.014250,-0.000997,-0.003052,-0.001984
0.014300,-0.000325,0.010986,0.010376
0.014350,0.001145,0.014038,-0.011902
0.014400,0.002434,0.002441,-0.007935
0.014450,0.003599,-0.004272,0.022583
0.014500,0.003719,-0.014038,0.013733
0.014550,0.002511,0.013428,-0.038147
0.014600,0.001108,-0.004272,-0.036926
