t [s],u [deg],y [deg],i [A]
0.000000,-0.000456,-0.004272,0.002899
0.000050,0.000522,-0.004272,0.010529
0.000100,0.000740,0.004883,-0.014496
0.000150,0.000313,0.005493,-0.015411
0.000200,0.000378,-0.007935,-0.016479
0.000250,-0.000403,-0.002441,0.003662
0.000300,-0.001414,-0.002441,-0.002899
0.000350,-0.000677,0.000000,0.004730
0.000400,0.000594,0.004883,0.001373
0.000450,0.001105,-0.010376,-0.018005
0.000500,0.000989,0.007935,-0.015411
0.000550,0.000586,0.006714,-0.017548
0.000600,0.000128,-0.001831,-0.001526
0.000650,-0.000429,0.010376,-0.016937
0.000700,-0.000681,-0.001221,-0.018616
0.000750,-0.000590,0.009155,-0.015869
0.000800,-0.000731,0.002441,-0.032349
0.000850,-0.001233,0.003052,-0.015869
0.000900,-0.001058,0.001831,0.010376
0.000950,-0.000285,-0.000610,0.002441
0.001000,-0.000034,0.001831,-0.018158
0.001050,0.000466,-0.002441,-0.013885
0.001100,0.001149,0.009155,-0.000763
0.001150,0.000432,-0.003052,-0.021973
0.001200,-0.000947,0.014038,-0.011444
0.001250,-0.001177,0.000000,-0.010529
0.001300,0.000231,0.000610,-0.018005
0.001350,0.001719,0.007324,-0.018311
0.001400,0.002036,0.003052,-0.011444
0.001450,0.002066,0.009766,-0.005188
0.001500,0.001880,0.003052,0.000763
0.001550,0.001108,0.006714,-0.024414
0.001600,0.000458,0.005493,-0.034485
0.001650,0.000575,0.007935,-0.015869
0.001700,0.000738,0.005493,-0.007935
0.001750,0.000436,0.008545,-0.000458
0.001800,0.000258,0.010376,-0.023499
0.001850,0.000473,0.002441,-0.001526
0.001900,0.000833,0.006104,-0.017242
0.001950,0.000529,0.014648,-0.016022
0.002000,-0.000248,0.003662,-0.028229
0.002050,-0.000804,0.007324,0.000610
0.002100,-0.001138,-0.001831,-0.002441
0.002150,-0.001124,-0.000610,0.001526
0.002200,-0.000948,-0.001221,-0.021362
0.002250,-0.000395,0.003662,0.009003
0.002300,0.000584,0.000000,-0.011444
0.002350,0.001048,0.003052,0.000305
0.002400,0.000927,0.000610,-0.011292
0.002450,0.001112,0.008545,-0.018463
0.002500,0.001258,0.017090,-0.011749
0.002550,0.000959,-0.003052,-0.016022
0.002600,0.000474,0.009155,-0.004730
0.002650,-0.000446,0.008545,-0.016479
0.002700,-0.001025,0.005493,-0.012970
0.002750,-0.000832,0.017090,-0.019989
0.002800,-0.000433,0.007324,0.000153
0.002850,0.000008,0.003662,0.000458
0.002900,-0.000006,-0.003052,0.008545
0.002950,-0.000808,-0.006104,-0.029755
0.003000,-0.001647,0.000000,-0.019379
0.003050,-0.001658,-0.004272,0.004578
0.003100,-0.001163,0.007324,-0.010529
0.003150,-0.000896,0.000610,-0.021667
0.003200,-0.000887,-0.004272,0.014191
0.003250,-0.000940,-0.002441,-0.023193
0.003300,-0.001165,-0.003052,-0.003510
0.003350,-0.001273,-0.004883,-0.021515
0.003400,-0.000615,0.009766,0.013885
0.003450,0.000072,-0.009766,-0.010681
0.003500,0.000299,-0.010376,-0.018463
0.003550,0.000617,0.010376,-0.023804
0.003600,0.001414,-0.002441,-0.023651
0.003650,0.001846,0.008545,-0.019836
0.003700,0.000983,0.007324,-0.016174
0.003750,0.000223,0.009155,-0.019684
0.003800,-0.000279,0.001831,-0.026245
0.003850,-0.000916,0.006104,-0.035248
0.003900,-0.001151,-0.001221,-0.027161
0.003950,-0.001543,0.005493,-0.021973
0.004000,-0.001800,0.000610,-0.003052
0.004050,-0.001637,0.004272,-0.007782
0.004100,-0.001390,-0.015259,-0.007019
0.004150,-0.000694,-0.003052,-0.017548
0.004200,0.000332,-0.013428,-0.005646
0.004250,0.000609,-0.003052,-0.008545
0.004300,0.000149,0.004883,-0.022736
0.004350,0.000163,-0.006104,-0.011139
0.004400,0.000196,-0.001831,-0.024567
0.004450,-0.000457,0.015869,-0.005341
0.004500,-0.000934,0.006104,-0.003052
0.004550,-0.000765,0.004272,-0.027924
0.004600,-0.001117,0.001221,-0.023651
0.004650,-0.001680,0.000610,-0.008087
0.004700,-0.000991,-0.002441,0.002747
0.004750,-0.000009,0.006714,0.003204
0.004800,0.000320,0.007935,-0.022125
0.004850,0.000331,-0.010376,-0.041809
0.004900,0.000533,0.004272,-0.035248
0.004950,0.000720,-0.001831,0.017853
0.005000,0.000479,0.002441,-0.027008
0.005050,-0.000121,-0.008545,0.017242
0.005100,-0.000906,0.012817,-0.047150
0.005150,-0.001039,0.007935,-0.026703
0.005200,0.000204,0.018311,-0.005646
0.005250,0.002092,0.006104,-0.028381
0.005300,0.003364,-0.011597,-0.004272
0.005350,0.003696,0.003052,0.021362
0.005400,0.003108,0.001221,0.015259
0.005450,0.001447,0.007324,-0.016174
0.005500,-0.000376,-0.001221,-0.010986
0.005550,-0.000842,-0.003052,-0.034485
0.005600,-0.001542,0.017090,-0.017395
0.005650,-0.004413,0.010986,-0.017548
0.005700,-0.008616,0.001221,-0.010071
0.005750,-0.013781,0.009155,-0.046082
0.005800,-0.019588,-0.015869,-0.014954
0.005850,-0.026294,0.004272,-0.056763
0.005900,-0.033909,-0.005493,-0.054779
0.005950,-0.041401,-0.014648,0.000153
0.006000,-0.049037,-0.015259,-0.027771
0.006050,-0.055822,-0.027466,-0.016174
0.006100,-0.059462,-0.017700,0.026855
0.006150,-0.059100,-0.042114,-0.000458
0.006200,-0.053757,-0.034180,-0.002899
0.006250,-0.040602,-0.042114,0.002289
0.006300,-0.017588,-0.038452,0.051880
0.006350,0.015870,-0.032959,0.051117
0.006400,0.060880,-0.043945,0.074615
0.006450,0.118201,-0.039062,0.130310
0.006500,0.187049,-0.028076,0.144958
0.006550,0.265653,0.005493,0.181122
0.006600,0.352750,0.044556,0.171204
0.006650,0.446290,0.087280,0.189972
0.006700,0.542770,0.147705,0.177917
0.006750,0.638905,0.207520,0.138092
0.006800,0.730230,0.286255,0.099945
0.006850,0.811760,0.368042,0.082703
0.006900,0.880348,0.452881,0.024719
0.006950,0.933207,0.551758,-0.025635
0.007000,0.967338,0.634155,-0.117950
0.007050,0.981166,0.717773,-0.154114
0.007100,0.974037,0.792236,-0.237122
0.007150,0.945905,0.859985,-0.278625
0.007200,0.898643,0.900879,-0.303497
0.007250,0.834736,0.938110,-0.315399
0.007300,0.756944,0.958252,-0.323029
0.007350,0.669699,0.928345,-0.296326
0.007400,0.576702,0.899658,-0.287170
0.007450,0.480686,0.847168,-0.225677
0.007500,0.386179,0.790405,-0.168304
0.007550,0.297198,0.712891,-0.129700
0.007600,0.215768,0.629272,-0.029755
0.007650,0.143862,0.540161,0.000610
0.007700,0.082638,0.453491,0.034027
0.007750,0.032886,0.357056,0.068665
0.007800,-0.005060,0.281372,0.127258
0.007850,-0.032571,0.206299,0.124512
0.007900,-0.051057,0.156860,0.158691
0.007950,-0.061437,0.081177,0.145416
0.008000,-0.064858,0.035400,0.144043
0.008050,-0.063336,0.005493,0.141449
0.008100,-0.058360,-0.026245,0.106049
0.008150,-0.050918,-0.033569,0.085297
0.008200,-0.042387,-0.049438,0.054932
0.008250,-0.033746,-0.040283,0.045166
0.008300,-0.026085,-0.045166,0.027008
0.008350,-0.019848,-0.031128,0.003052
0.008400,-0.014477,-0.043335,-0.017853
0.008450,-0.009823,-0.036621,-0.019836
0.008500,-0.006488,-0.017090,-0.035553
0.008550,-0.004629,-0.003052,-0.046082
0.008600,-0.003887,-0.010986,-0.038757
0.008650,-0.003702,-0.014038,-0.024414
0.008700,-0.003051,-0.003052,-0.034790
0.008750,-0.002035,0.001221,-0.001678
0.008800,-0.001435,0.002441,-0.029449
0.008850,-0.001487,0.000000,-0.022736
0.008900,-0.002075,0.005493,-0.014191
0.008950,-0.002094,0.009155,-0.028534
0.009000,-0.001566,-0.003662,-0.017090
0.009050,-0.001351,-0.001221,-0.013885
0.009100,-0.001178,0.003052,0.014496
0.009150,-0.001522,-0.001831,-0.015717
0.009200,-0.002539,-0.010986,-0.016174
0.009250,-0.002892,0.009766,-0.018005
0.009300,-0.002656,0.007935,-0.026550
0.009350,-0.002408,-0.007324,-0.002441
0.009400,-0.002036,0.006714,-0.012665
0.009450,-0.002117,-0.007324,0.001221
0.009500,-0.002209,0.008545,-0.005951
0.009550,-0.001787,0.009155,0.007019
0.009600,-0.001426,0.010376,-0.018616
0.009650,-0.001196,0.003052,0.008850
0.009700,-0.000972,0.009155,-0.014496
0.009750,-0.001138,-0.003052,-0.025482
0.009800,-0.001801,0.006104,-0.017548
0.009850,-0.001619,0.000610,-0.013275
0.009900,-0.000310,-0.009155,-0.008545
0.009950,-0.000186,0.003662,-0.007782
0.010000,-0.001025,0.003052,-0.000916
0.010050,-0.000353,0.000000,-0.032043
0.010100,0.001060,0.003052,-0.011444
0.010150,0.001356,0.017700,-0.017548
0.010200,0.000719,0.013428,-0.024719
0.010250,0.000208,0.004272,-0.002747
0.010300,-0.000312,0.010376,-0.019684
0.010350,-0.001224,0.007935,-0.023651
0.010400,-0.001426,0.006714,-0.005188
0.010450,-0.000887,0.021973,-0.002899
0.010500,-0.000556,0.017090,-0.003967
0.010550,-0.001074,0.007935,-0.011292
0.010600,-0.001994,-0.009155,-0.020142
0.010650,-0.002179,0.012817,-0.024109
0.010700,-0.001613,-0.006104,0.002594
0.010750,-0.001286,0.006714,-0.017242
0.010800,-0.001529,-0.001831,-0.006714
0.010850,-0.001267,-0.001831,-0.016174
0.010900,-0.000915,0.003662,-0.018005
0.010950,-0.000626,0.007324,-0.011902
0.011000,0.000011,0.004883,-0.023651
0.011050,0.000502,0.006714,-0.010986
0.011100,0.000907,0.003052,-0.005798
0.011150,0.000427,0.007935,-0.012360
0.011200,-0.000685,0.006714,-0.017242
0.011250,-0.000926,0.006714,-0.006104
0.011300,-0.000985,0.001831,-0.022430
0.011350,-0.000952,0.010986,-0.017395
0.011400,-0.000224,0.006104,-0.017090
0.011450,-0.000340,0.000000,-0.015564
0.011500,-0.001342,0.004272,-0.024261
0.011550,-0.001633,0.007324,-0.016174
0.011600,-0.001873,0.001221,-0.013885
0.011650,-0.002372,0.008545,0.009918
0.011700,-0.002159,0.004883,-0.012970
0.011750,-0.001375,0.004272,-0.008545
0.011800,-0.000456,0.009155,-0.019684
0.011850,-0.000244,0.006104,0.003662
0.011900,-0.000868,-0.001831,-0.007629
0.011950,-0.001903,-0.010376,-0.010681
0.012000,-0.001996,0.000000,-0.018158
0.012050,-0.000670,0.000610,-0.023804
0.012100,0.000101,-0.002441,-0.014038
0.012150,0.000071,0.010376,-0.021362
0.012200,0.000030,-0.000610,-0.001831
0.012250,0.000018,0.004272,-0.018768
0.012300,-0.000408,0.004883,-0.027161
0.012350,-0.000941,-0.001831,-0.024567
0.012400,-0.000791,0.001221,-0.025635
0.012450,-0.000251,0.005493,0.008087
0.012500,-0.000394,-0.000610,-0.023193
0.012550,-0.001027,-0.000610,-0.013428
0.012600,-0.001252,0.001221,0.004425
0.012650,-0.001198,-0.016479,-0.012512
0.012700,-0.000879,0.009155,-0.019073
0.012750,-0.000351,-0.006104,-0.016174
0.012800,-0.000109,-0.006104,0.016022
0.012850,-0.000446,-0.006104,-0.005646
0.012900,-0.000641,0.006104,-0.023193
0.012950,-0.000458,-0.000610,-0.019073
0.013000,-0.000614,0.008545,0.011139
0.013050,-0.000750,-0.010376,0.008087
0.013100,-0.000732,0.000610,-0.022125
0.013150,-0.001162,0.003662,-0.030823
0.013200,-0.001370,0.003662,-0.041046
0.013250,-0.000807,0.004883,-0.027313
0.013300,-0.000308,-0.009155,-0.002441
0.013350,-0.000144,-0.006714,-0.001221
0.013400,0.000249,-0.004272,0.013275
0.013450,0.000425,0.006714,-0.031891
0.013500,0.000051,0.002441,-0.032654
0.013550,-0.000568,0.010376,-0.018005
0.013600,-0.001055,0.006104,-0.021515
0.013650,-0.000844,0.015869,-0.033112
0.013700,-0.000393,-0.015259,-0.003357
0.013750,0.000076,0.004883,0.009155
0.013800,0.000499,0.007324,-0.009460
0.013850,0.000404,0.008545,-0.012054
0.013900,-0.000074,-0.007935,0.003662
0.013950,-0.000457,0.009766,-0.011902
0.014000,-0.000665,0.016479,-0.024261
0.014050,-0.001132,-0.004272,-0.030212
0.014100,-0.001564,0.016479,-0.028076
0.014150,-0.001323,0.012207,-0.029907
0.014200,-0.000304,0.003052,-0.016632
0.014250,0.000830,0.015259,-0.012817
0.014300,0.000973,0.005493,0.008850
0.014350,0.000683,0.009155,0.006561
0.014400,0.001398,-0.007935,0.005798
0.014450,0.002443,-0.002441,-0.021820
0.014500,0.003189,-0.001831,0.005493
0.014550,0.003784,-0.004883,0.008392
0.014600,0.002889,0.009766,-0.018005
